,yaw,pitch,roll,x,y,z,acc_x,acc_y,acc_z,omega_x,omega_y,omega_z
0,2.86581416358151,-0.2341676640875662,0.012329908829015147,4.732503799693432,0.13972072429964594,0.9275722077844254,-0.004922991959392501,0.07385573856581899,0.0,0.0,0.0,0.0
1,-2.9501305369502213,0.19391637342816545,-0.033999572015424015,5.3072370852060295,0.06831614401719255,-0.24446887770649917,-0.005064048110860373,0.049506190069759655,0.0,0.0,0.0,5e-05
2,2.6100380205631892,0.05838489952827397,0.08727871941979103,5.223939017134077,0.5532244306024063,0.2713597084224664,0.010851128841830203,0.05305140144102618,0.0,0.0,0.0,0.0001
3,2.7867660196256474,-0.2587194359785464,-0.0392755537013541,5.147384056943595,-0.25058704853496205,-0.030576870869657213,-0.004483269867157905,0.04592591848999752,0.0,0.0,0.0,0.00015000000000000001
4,3.029034710773059,-0.009872128161586497,0.12980782313111658,4.990788135413771,0.3687106075348557,0.2363293668747111,0.0028954178477886144,0.03762126873480741,0.0,0.0,0.0,0.0002
5,2.7085498622546544,-0.16308218085614362,-0.22084794165876134,5.082181462193552,-1.1583186452534464,-0.023174438113866547,0.006142795282548495,0.0376464005843579,0.0,0.0,0.0,0.00025000000000000006
6,2.8828598432234602,0.11606103032583345,-0.07172040012784368,5.238896000380619,-0.2623974552293124,0.06595764882770139,-0.013771433285855872,0.0520681761850161,0.0,0.0,0.0,0.00030000000000000003
7,-2.881301670314552,-0.21609527890294783,0.07317635953313692,4.745012468854244,0.9518533461086808,0.7741073394444586,0.012179449604306329,0.07761389778528999,0.0,0.0,0.0,0.00035000000000000005
8,2.5398133561321776,-0.07009435427143514,-0.08577602521683318,4.9756929894642665,-0.715331622809395,-0.6086373024536127,-0.0010805406668419019,0.04892485625650001,0.0,0.0,0.0,0.0004
9,-3.0359742436639756,-0.019592684787449573,0.029035336116703114,5.03318533777225,-0.21412678383443537,0.09252000839823378,0.021851967496383854,0.0485590442483627,0.0,0.0,0.0,0.00045
10,-2.360385775744925,-0.30024822749828467,-0.08218302035845405,4.634562700968072,-0.027334815083095487,0.056650342934547626,0.007208400826186843,0.03736243878146123,0.0,0.0,0.0,0.0005000000000000001
11,-2.867216575057552,0.14248503778230695,-0.08080151127886924,5.474233342973416,0.43569822485548865,-0.00467880802067,-0.017426928536023137,0.03684286781415514,0.0,0.0,0.0,0.00055
12,2.987025311891377,0.0800099121240802,0.10283740041736988,4.937063105062803,0.3571220824606751,0.218638127897881,-0.0005393427353261398,0.04739985060723597,0.0,0.0,0.0,0.0006000000000000001
13,3.033198231183125,0.18799082501995693,0.15437304406468821,5.1895033082190025,0.4076383311474385,0.3291888062547294,0.011120048947894073,0.02620529480790943,0.0,0.0,0.0,0.0006500000000000001
14,-2.9710579707280735,-0.017308176229776123,-0.04325118764151581,5.170789702079065,-0.511882121937214,-0.43205891719400147,0.026429765194959872,0.040160771976175264,0.0,0.0,0.0,0.0007000000000000001
15,-2.580156383748103,-0.15715397229799552,-0.019647945429143034,4.8940601261300065,0.2148057727207107,1.2375415071982605,0.016118382033563104,0.07069531620098068,0.0,0.0,0.0,0.00075
16,-3.039612840434094,-0.2875815556258771,-0.18904401805615964,4.11949122467481,0.24580771803091228,1.1479081766074835,-0.009369596559471052,0.04935507489045233,0.0,0.0,0.0,0.0008
17,-3.0673579514465708,-0.007996399083175615,0.17325993717614796,4.888993502882889,0.36864003506071835,0.2539481283704419,0.018247956053083318,0.04519760566031966,0.0,0.0,0.0,0.0008500000000000001
18,-2.986400324847016,0.017314664268439153,-0.2796961506412016,4.793715423554603,-0.8248780441813809,0.4977008184456651,0.009623546314200765,0.059897456816279546,0.0,0.0,0.0,0.0009
19,-2.818337157357231,-0.26833299001014554,0.08149419547496572,4.825545565835393,0.4744249632862672,1.4570458250458143,0.013191542472187031,0.043495226251125875,0.0,0.0,0.0,0.0009500000000000001
20,-3.0423817202826506,-0.07928912886052696,-0.061082033789367274,5.413240207340005,-0.44456525805269836,-0.4136229280212283,-0.00461599713156197,0.04756535274067076,0.0,0.0,0.0,0.0010000000000000002
21,2.8541377025721393,-0.03681466315297894,-0.08093049438032857,5.061173958254959,0.2642809247915433,0.49099846593325835,0.004754679783097989,0.05754588596796123,0.0,0.0,0.0,0.0010500000000000002
22,2.4829918411896585,-0.23287972227290776,-0.017926036399933433,4.992301230574782,-0.6089891606251265,0.16725787128876146,0.0030661590301408973,0.050276409563893,0.0,0.0,0.0,0.0011
23,3.045200416177338,0.04054928749264084,0.21257562964737098,5.147921142662233,1.0512862525208,0.07120541803737357,-0.01367591424684359,0.050910719568410395,0.0,0.0,0.0,0.0011500000000000002
24,-2.5534981217301564,-0.12853864314399732,-0.024862807187828906,5.094933013031044,-0.2981177715419383,0.020824077790586926,-0.014392785295710642,0.04431505787506298,0.0,0.0,0.0,0.0012000000000000001
25,2.9831527272391676,0.02788425476686077,0.18945590772115747,4.553304143154172,0.6444628043863008,-0.21068758674782956,0.0001230957580644363,0.04105822449094808,0.0,0.0,0.0,0.00125
26,-2.963501920062876,-0.03772853717161127,-0.11664665362496399,4.298604532978746,-0.5104807276794371,0.9526552481621922,0.003336886863148097,0.0465984258118783,0.0,0.0,0.0,0.0013000000000000002
27,2.9184752905487037,-0.06324881071364441,-0.19498528731503084,5.038618773459606,-0.6215210241886995,-0.3527685223691776,-0.028154002572311137,0.03602058051440496,0.0,0.0,0.0,0.00135
28,3.0067336842168073,0.014008879017008834,-0.013921030988325011,5.073384026018393,-0.14909168427251254,-0.3846808032101154,0.0057664230543781215,0.06307176989001853,0.0,0.0,0.0,0.0014000000000000002
29,3.0678284093286776,0.01296386830725221,-0.010219812778965793,5.175678164814904,-0.7457984275078481,-0.5152027413723488,0.010950212994912995,0.05009448095556971,0.0,0.0,0.0,0.00145
30,-2.865224946464779,0.016715500593381116,0.07393378380886,5.041898041801486,-0.00856917606143029,-1.2995583172454308,-0.002594932321612296,0.05160655158455729,0.0,0.0,0.0,0.0015
31,-3.130469522428649,-0.06023886364654137,0.1090499133859449,5.26434555048311,0.1058284144808786,-0.33238102071497055,-0.006024804198919611,0.06918957407841411,0.0,0.0,0.0,0.00155
32,2.8850447184789076,-0.06462729162064182,0.02971529555134799,5.111843097089463,-0.7734641842566449,0.6264548422709353,0.009823494101497096,0.04569013898635127,0.0,0.0,0.0,0.0016
33,-3.124975818244949,-0.0587033509620386,0.005851586836649115,4.774871054257765,-0.14913409493508756,0.3391774577399504,-0.0022402474466069354,0.05469890066297124,0.0,0.0,0.0,0.00165
34,3.0181839365548546,0.14855446143989784,0.08293870020397538,4.901370125456799,0.22713239552121123,-0.04616500120803968,-0.007536345781946667,0.041479622909367186,0.0,0.0,0.0,0.0017000000000000001
35,-2.663795498186614,0.11226281689866789,0.1959548913259498,5.274206878557914,0.006975894315189746,-0.8837892238165771,-0.013668586291349934,0.05112737670406087,0.0,0.0,0.0,0.0017500000000000003
36,-2.620898011532835,-0.1504668873751474,-0.14180122968967068,5.489589645490705,-0.7991927650065392,-0.036723346087653014,-0.0003778229915753596,0.047246478407907536,0.0,0.0,0.0,0.0018
37,2.8600574118402458,-0.055098015215690244,0.15923110053159395,4.797503243500938,0.29991316769515897,0.28811261153640466,0.006785259459605684,0.05327732942534426,0.0,0.0,0.0,0.0018499999999999999
38,-3.110330802311057,-0.008331396844168028,0.007729875550874068,4.867037122058489,0.24221957906518427,0.3462190337739344,-0.011176936190308464,0.04852778218585275,0.0,0.0,0.0,0.0019000000000000002
39,-3.0233804341102815,0.03245470168244581,-0.19016562138734158,5.056533116229267,-0.6419927962099068,0.5021562631273702,0.004727313633783592,0.05035620328758696,0.0,0.0,0.0,0.0019500000000000003
40,3.0434168703826994,0.06988076561786376,0.04653492677910908,5.39144682595475,-0.3098043066700624,0.6990228893961709,0.014087590761975787,0.04655978323236626,0.0,0.0,0.0,0.0020000000000000005
41,-2.9193736634341967,-0.032337919425037366,0.007648420663941902,5.006712432335147,1.1247180623276523,0.12221942901525788,-0.005153659321792032,0.024187834725902618,0.0,0.0,0.0,0.0020500000000000006
42,-2.8047267879293654,-0.21497546578800375,0.261419511073301,4.583582139210072,0.5920392890966126,0.8090908055648671,0.010197953764397206,0.03231575218333334,0.0,0.0,0.0,0.0021000000000000003
43,-2.7884152836978613,-0.1492965454038275,-0.004941311558432896,4.702447719674099,0.5166191653856474,0.28116239751555777,0.002890408679497824,0.042372226935074635,0.0,0.0,0.0,0.00215
44,-3.042584301895223,-0.042887705225119435,0.168861362490835,5.188908967718283,0.55010742227498,-0.6963339505710453,0.0024300699378317354,0.041727360630731715,0.0,0.0,0.0,0.0022
45,-2.7311018113507903,0.11429698962589147,0.19525281982857728,4.948760618564044,0.34401155689692486,-0.18534699520886147,-0.013587621821668859,0.05194112506149477,0.0,0.0,0.0,0.0022500000000000003
46,2.9969585375160985,0.21641078932252136,0.2567345848885461,4.75466374988177,1.7239539628033764,-0.4549712637400126,-0.006204344538468517,0.06794396659360909,0.0,0.0,0.0,0.0023000000000000004
47,-2.283266794686303,-0.003152560886079223,0.16955240515313078,5.127924009237731,0.2696155347213634,-0.12675657557590367,-0.0007433891875728009,0.03347306557455591,0.0,0.0,0.0,0.0023500000000000005
48,3.0258967873539078,-0.32128685987503436,0.06734836017969584,4.9614239503893875,-0.2584325861740977,0.7217323167601918,-0.0017814562743885863,0.045686183263553115,0.0,0.0,0.0,0.0024000000000000002
49,2.663130122049861,-0.03842672811402885,0.09571758083075836,4.622082012905065,0.03676745581066515,-0.4706400711265305,-0.00955383836730032,0.06094446854759544,0.0,0.0,0.0,0.00245
50,-3.044740731717097,0.2108270390252751,-0.1146289323597741,4.632015263183763,-0.5363383616579062,-0.2399838028617577,-0.0006184481953624609,0.03741831702868669,0.0,0.0,0.0,0.0025
51,2.781688700478573,0.08760574432619024,0.07547889007678135,4.895542653438906,0.49327911269135377,0.3016972229675166,0.0020922564705949122,0.052490758221607904,0.0,0.0,0.0,0.00255
52,-3.1225936650619226,-0.08378560704195236,0.0592103764390942,4.789188376130359,0.892588704004748,-0.12072904949533028,0.016252232625117734,0.04334338599838896,0.0,0.0,0.0,0.0026000000000000003
53,3.0454257983785897,-0.024687964618391057,0.03982588648216868,4.560292481778561,0.7843096168649601,1.364536190056382,0.008782634792423737,0.06235401542993232,0.0,0.0,0.0,0.0026500000000000004
54,-2.7413335561127075,-0.1210962934382529,0.033483683918535075,4.927331799029328,0.22369146269340315,1.0269624616774875,0.006919812781761086,0.05097538296056,0.0,0.0,0.0,0.0027
55,2.8544499487715407,0.2344376156650271,0.056829522356199286,4.761250889200323,-0.04075922321352579,-0.8282920167936806,0.0027936811237833947,0.04074333406725429,0.0,0.0,0.0,0.0027500000000000003
56,-3.0458537259317917,-0.12128755573288863,-0.0239357146637012,4.830349648207157,-0.24273956931258672,0.23372961068707354,-0.00044681525165456284,0.04504912802641704,0.0,0.0,0.0,0.0028000000000000004
57,-3.08138133997396,-0.010724925815012753,-0.1056939765293872,5.294020552385528,-0.379688016501005,0.7311302341314351,0.001991297433496026,0.048088722518536756,0.0,0.0,0.0,0.0028500000000000005
58,3.0835572754570717,-0.10658603832913165,-0.19274255790301825,5.475271812384525,-0.8042111298293804,0.1691212422929279,-0.014444256627959931,0.03413461732442581,0.0,0.0,0.0,0.0029
59,3.1221315515964143,-0.051507500941098974,-0.11859449861715195,5.359641056561514,-0.708294205003099,0.3010620092039247,-0.00042987757387619494,0.038191176392272624,0.0,0.0,0.0,0.00295
60,2.9161218742815023,-0.078732080805292,-0.09057204752517227,4.7394143146673455,-0.9060855892905066,-0.21370306254612367,0.014673328251863666,0.048169631150046174,0.0,0.0,0.0,0.003
61,-3.0494132423629488,-0.05153675574212567,-0.037222046756177386,4.899743541713986,-0.08757468385082112,-0.46776264510423676,0.019374114454854804,0.04283555614219437,0.0,0.0,0.0,0.0030499999999999998
62,2.8107988403783803,-0.002043096668403049,0.12162483086519339,5.4263802024266425,0.6902189423753609,0.5876645373569616,-0.009705863390944952,0.05121205213248634,0.0,0.0,0.0,0.0031
63,-2.87114507874946,0.031664944432916994,0.07606788943823871,5.3022748935617585,0.08335022716870999,-0.5572813465174354,-0.0015198701354618323,0.06619603437636937,0.0,0.0,0.0,0.00315
64,-3.117456337192048,0.08822582059661054,0.19392092409326953,5.142705246917831,0.26082528209464795,0.25114225932214285,0.006545000247469073,0.02868590475914797,0.0,0.0,0.0,0.0032
65,2.8561102183349685,-0.04560482120474993,0.024942030252701673,4.506083438826884,0.5337968925598834,0.528789860889365,0.0036552098425149536,0.048908701356931684,0.0,0.0,0.0,0.0032500000000000003
66,-2.6609397465412394,-0.19992944137412919,0.02088966754511552,5.0693664082769985,0.6760427825478428,0.4642036834760067,-0.013564381553581768,0.05501567089142164,0.0,0.0,0.0,0.0033
67,-3.0105904283683436,0.13410344914448868,0.05442342973705351,5.024922790248806,-0.45693956872579744,-0.6070178995067871,0.004893784215777046,0.04584155474282166,0.0,0.0,0.0,0.00335
68,2.694336571140485,-0.12037574344118808,0.056630448219411926,5.177660938697257,0.15895361767666422,0.9289603637920509,0.013598947604259793,0.051484039982093784,0.0,0.0,0.0,0.0034000000000000002
69,-2.8905899481174164,-0.16037079717940936,0.0695366197954401,5.25633959651294,0.5712499971852504,-0.5054715827929444,-0.01509575137086469,0.05857926961875787,0.0,0.0,0.0,0.0034500000000000004
70,-2.981951413161932,-0.19869430573795743,-0.07027644844975313,4.638878640917201,0.002765518623386143,0.07674448120638588,0.004435888180722076,0.04580480465411652,0.0,0.0,0.0,0.0035000000000000005
71,3.0037389168565354,-0.298440434140046,-0.2643428856125094,5.305896037595377,-0.8291181229092359,0.4022262463984625,-0.004562214582572229,0.06292288760246138,0.0,0.0,0.0,0.0035499999999999998
72,2.7638743997051747,-0.10159637035576836,-0.01833122493992405,4.324586691352404,0.3381559985416978,0.2479570765659783,-0.014870021376945479,0.05785228512966663,0.0,0.0,0.0,0.0036
73,-2.686247533719407,0.19239516747549984,-0.1459834088611075,5.399355862002047,-0.6658086191516933,0.2520111797529563,0.018701366362837545,0.0541666464144475,0.0,0.0,0.0,0.0036499999999999996
74,-2.3427561262226506,0.0007977211898943075,0.16355668773969362,4.6493807517795736,0.2573868220288178,-0.9529240797521163,0.0028678067476417906,0.040489658016705656,0.0,0.0,0.0,0.0036999999999999997
75,-3.0976738875684933,0.05936221477366679,-0.1261222837303492,4.864747200063261,0.027543383613558514,-0.37641833465837704,-0.0014135000737942219,0.0554109399969709,0.0,0.0,0.0,0.0037500000000000007
76,-2.691864887424433,-0.009297244438895257,0.24107549694066438,4.619342640468355,1.3990410163556626,-0.15889350976706157,-0.0037937107331675194,0.06784245188108429,0.0,0.0,0.0,0.0038000000000000004
77,-2.8989703471265065,-0.11116558958787559,-0.08266340031805886,5.220496798212504,0.1535636475611692,0.9963814651086231,-0.006990994399353636,0.04396594567925599,0.0,0.0,0.0,0.0038500000000000006
78,-3.0962497839279695,0.11103375899022792,-0.3301337371786931,4.687114578648422,-0.9577792517821591,0.1077297637059752,0.0003774832188680261,0.0768728446419506,0.0,0.0,0.0,0.0039000000000000007
79,2.8762762706960965,0.22559794708712272,0.014983415061084616,5.378589289475107,0.2543735279117577,-0.15244401531229312,-0.0028446897459373285,0.038565501213047276,0.0,0.0,0.0,0.00395
80,-3.053007915379988,0.02560165233217801,-0.07703317681200514,5.1618783395987755,-0.18549356345531362,0.2702236835092071,-0.008049379119903617,0.05202294274238477,0.0,0.0,0.0,0.004000000000000001
81,-2.9816855308110712,-0.1315596303967657,0.20241461447262613,4.968747684278397,0.6967576855763125,0.29873573340629067,0.002694650748976386,0.04924529212260367,0.0,0.0,0.0,0.004050000000000001
82,2.7767645080276333,-0.25455815747095845,0.026347614332468412,5.131081135822656,-0.3113430770744531,0.6996237763866119,0.0011752592491301903,0.03693993089267606,0.0,0.0,0.0,0.004100000000000001
83,-2.9597095245974065,0.08513880562597644,0.10060285114990014,5.37999389196319,-0.3452614558885117,-0.18806907330420014,0.010380970234665738,0.05636577286666811,0.0,0.0,0.0,0.004150000000000001
84,2.775025074804719,0.06928546419788698,-0.03442293937290828,5.263147803182921,-0.20355805429673612,0.5729552440419934,-0.0133844418750847,0.058970047118390906,0.0,0.0,0.0,0.004200000000000001
85,-3.052270001506906,0.08566483919955799,0.18515942968945698,4.665440278456471,0.6016292401134516,-1.1133399439754321,-0.0062635233341406015,0.039709159302891366,0.0,0.0,0.0,0.00425
86,-2.980473594593272,-0.1204967284806807,-0.25402481645614833,4.907756112085959,-0.387550508027411,1.5662798753194873,0.00021322391459739474,0.048398977620512984,0.0,0.0,0.0,0.0043
87,-2.9575230690658736,0.0855370066421744,0.12277698528358699,5.250505372933069,0.1802445543255708,0.6059255334299083,-0.0030898508025770316,0.04528484030087235,0.0,0.0,0.0,0.004350000000000001
88,-3.0474892583463435,-0.0369097164159712,0.17991450300485043,4.834373834795675,0.9143615458724675,0.9342583207122264,-0.004365362403360847,0.06687984186969133,0.0,0.0,0.0,0.0044
89,2.961725401411114,0.10085671061238592,0.0767269984056717,5.282034562988783,0.25057158516483485,0.05956680859976743,-0.0027499261488079054,0.059153780002503764,0.0,0.0,0.0,0.004450000000000001
90,-2.907088059315218,0.12700094488064978,0.05678573043681279,4.885554974528649,0.13255158870302386,-0.6719962553844216,-0.015772027655879227,0.0504363743997102,0.0,0.0,0.0,0.0045000000000000005
91,-2.7510384255922373,0.10176396353634261,-0.22162259395869627,5.4209319858429454,-1.5499163453599354,0.10032902656730475,0.013616986346120573,0.048046294070788906,0.0,0.0,0.0,0.00455
92,-2.8723364871833037,0.08905366168839708,0.03475002144843006,4.773309814613937,0.893289978537717,0.2208880671278496,-0.015029396486007889,0.04853019082288682,0.0,0.0,0.0,0.004600000000000001
93,-3.0458565704167695,0.035066179108663824,0.07742221929745777,4.808385911765667,0.771276710765784,-0.6845383318064586,-0.01650393886641734,0.04081878974429282,0.0,0.0,0.0,0.0046500000000000005
94,-2.8134612400262866,-0.09353462904345466,0.028626961343293896,5.275878245090751,0.04970465779029775,0.35766217407025874,-0.00035832495592760403,0.05449187858031028,0.0,0.0,0.0,0.004700000000000001
95,2.758423004208883,0.1829910980614459,-0.013029077168238928,4.87228283870583,-0.29028062796653525,-0.8174817327838062,0.01379623256396487,0.04868450945322482,0.0,0.0,0.0,0.004750000000000001
96,-2.2609194122111456,0.05255434221932112,0.08954188801778538,5.09838144996491,0.23404561246006422,0.025225899448376936,0.018083690197199954,0.025698896176636468,0.0,0.0,0.0,0.0048000000000000004
97,3.048413901808114,0.05240298037419006,0.22933970388914077,4.9555296245977365,0.06531487476853148,0.34915021222917464,0.01129117902906067,0.07666571549408878,0.0,0.0,0.0,0.00485
98,-2.807936454971439,0.029319075804159943,0.038989097550826315,4.6382038452305325,0.48076252899090177,-0.8263868929987321,-0.00510885015962092,0.04311244672539313,0.0,0.0,0.0,0.0049
99,3.0598808242166937,0.15538243668024052,0.11059597827917032,5.531242715049415,1.1239664059179966,-0.09583961212222558,-0.007081099389361379,0.05556201212570659,0.0,0.0,0.0,0.00495
100,2.8724725052376296,-0.1809946998104234,-0.027990756246654678,4.862665168152709,0.033314057358559884,0.23123062425725183,0.0005083770607219389,0.053074718426583394,0.0,0.0,0.0,0.005
101,-2.8577754436186678,-0.006493633598216055,-0.17447264925039185,5.023059096292343,-0.23760452396174375,0.6238993887159399,0.0020504210414502714,0.04838820123673416,0.0,0.0,0.0,0.005050000000000001
102,3.1211087632686234,-0.02610797190388155,-0.06836471726784371,4.807535375160272,-0.37960194086869353,-0.4871353049380414,0.00021406358135918073,0.0439300603877816,0.0,0.0,0.0,0.0051
103,2.7580944529418603,-0.23841186992120128,0.19821374454542803,4.913712245765861,-0.0462628947667133,1.210134711243676,0.006147334823519842,0.05647825183517789,0.0,0.0,0.0,0.00515
104,2.8497184096341486,0.17223701676995826,0.16985052672471176,5.043997187466799,0.7955515876589595,0.22677872852847847,0.0066907484306621395,0.075571209193188,0.0,0.0,0.0,0.005200000000000001
105,-3.0992688835919715,-0.014300667640282101,0.16493237914539496,4.718816241316462,-0.2081394790624483,-0.5227670657998768,-0.004533329343133453,0.054830883144744616,0.0,0.0,0.0,0.00525
106,-2.776570702083289,0.02133771471946592,-0.03819079754408577,5.161146484873699,0.9093805772491563,-0.1939147807417579,-0.019816205924681352,0.04801151177068453,0.0,0.0,0.0,0.005300000000000001
107,2.265717352315747,-0.027361846442105788,0.00476349008105008,4.73828074061652,0.47526237525337606,-0.004103016227387055,0.005298814412728185,0.05070229761904365,0.0,0.0,0.0,0.005350000000000001
108,3.078347444000799,0.10162437099577683,-0.013431128968931502,5.571478822252698,0.6984470944511155,-0.9688446816419803,-0.015821400620698388,0.05568748892635877,0.0,0.0,0.0,0.0054
109,3.010206864313183,0.18966862175037547,0.028387522504496176,4.8831864841860675,0.0839154456249777,0.05402239564917005,-0.0013084861045604805,0.07030543110434671,0.0,0.0,0.0,0.005450000000000001
110,-2.98832893007765,0.12657693411697565,0.2532650023368136,5.398209640968438,0.3542732972942483,-0.7103742430026799,-0.012899099621684547,0.04810824178748745,0.0,0.0,0.0,0.0055000000000000005
111,2.6994154195140805,-0.1932105557607313,-0.06720128245481674,4.621546954510672,-0.7899854939831792,0.475486927595809,-0.003177646820352307,0.04437820889260032,0.0,0.0,0.0,0.005550000000000001
112,-3.0156685291637384,-0.07281262817719684,-0.09769751316391972,4.533195707535357,0.21185972854043988,0.06765949557822482,0.01678207616709625,0.036435115274603615,0.0,0.0,0.0,0.005600000000000001
113,-3.135549210280457,0.09024600622059514,0.05688329682442632,4.988700978519375,-1.0958205349069212,-0.6559380017809047,-0.01879193126303441,0.05050556065839766,0.0,0.0,0.0,0.0056500000000000005
114,-2.501225499471429,-0.04169504996817138,-0.05741975666487425,5.455736712652287,-0.5188155223335622,-0.18366829314828306,-0.0016939209863436535,0.050958360522951926,0.0,0.0,0.0,0.005700000000000001
115,2.615733865704531,0.06236356852122635,-0.15703924821497817,4.937084819366474,-0.5361164717297713,-0.14837527567763537,0.005008360173059476,0.05695421245121046,0.0,0.0,0.0,0.005750000000000001
116,-3.085381653120663,0.07133040300810198,0.15736715112502336,4.856567219421738,0.7709268095489643,-0.07053122433200772,0.006494068952012282,0.04154079017857125,0.0,0.0,0.0,0.0058
117,3.0598161923039404,0.013329799019623556,0.18224186842588774,5.4890960454849935,1.068177083565962,-0.1286052330800057,0.0002479259163201892,0.06477072071303605,0.0,0.0,0.0,0.005849999999999999
118,2.652931386739835,0.33807457369844396,0.02958399615588352,4.695279025921758,1.0365863443678576,-0.5920939455073316,-0.0068222716174954805,0.05612265105777216,0.0,0.0,0.0,0.0059
119,3.1256969248285267,0.26466493065065994,0.1156663620919783,4.584748741837078,0.6371239648460914,0.4753937205504447,0.005891510133902974,0.046826679856642725,0.0,0.0,0.0,0.0059499999999999996
120,-2.586800419649686,-0.12548617449545893,-0.27322123274475807,5.160355744280416,-0.11656417361232696,1.2174459432252054,-0.005253877627900812,0.051391716429525704,0.0,0.0,0.0,0.006
121,-2.6269753744109052,-0.0781015210125546,-0.0342248953734468,4.363403436541814,-0.10723369943882122,-0.2876169261628082,0.0003643795633393773,0.04281894882447043,0.0,0.0,0.0,0.00605
122,2.940862843632303,-0.08692676616735262,0.06698994922655362,5.5760493145515335,0.13801412371281008,1.4574313163697354,0.006281847256715165,0.04185959967222633,0.0,0.0,0.0,0.0060999999999999995
123,2.941922134152862,-0.07478135411062173,-0.102089157937503,5.007816824236359,0.049155577290441926,0.10855422984010382,0.007706948599394513,0.05321624894644102,0.0,0.0,0.0,0.00615
124,-2.3905403390766584,-0.2495560828080182,0.1402855534037831,5.001564340483513,-0.07618114349885584,0.41318325190805627,0.00139200587304881,0.05544055323395567,0.0,0.0,0.0,0.0062
125,-2.559601796192118,0.14879854025825107,0.10932746871443189,5.62799849043483,-0.06491558116377466,-0.325226193977704,-0.014267533553716282,0.04925797241152198,0.0,0.0,0.0,0.00625
126,-2.685596676600105,0.23021043845953634,0.12473598619333613,4.802426929758614,0.46272837919881527,-0.47493267210960977,-0.0025129538533089674,0.03816451140857414,0.0,0.0,0.0,0.0063
127,3.13230250254049,0.0025577382272082274,0.010329842826664536,5.084587949808414,-0.05341704957397436,0.33856566531380505,-0.0003433376813688134,0.032833832305768675,0.0,0.0,0.0,0.00635
128,2.7722688218829976,-0.1366394167546863,-0.08456439689979872,5.086687907004458,0.3398169988107047,0.2760153777835137,0.006218833570622729,0.03580411360332864,0.0,0.0,0.0,0.0064
129,-2.907664758051481,0.17342353869294352,-0.1768053979441772,4.830380213547094,-1.0621850896917113,-0.09844174968507502,0.00899374179535303,0.05241699762651493,0.0,0.0,0.0,0.00645
130,3.0877865903280015,0.1643902960343181,0.0035964739437316217,5.214102917048788,0.524364613161857,-0.2730751818694672,0.004710980029477152,0.061372597793526225,0.0,0.0,0.0,0.006500000000000001
131,2.7746535426083914,-0.06647624678188177,0.059221822531613996,4.915907295039537,0.11197311841958688,0.21030355030509712,-0.005487272497563574,0.028259637048185366,0.0,0.0,0.0,0.00655
132,-2.9760441755338807,0.18555983744121823,0.2022194930378132,4.804322395447855,0.2008268680362939,-0.3838147608032141,-0.005513391622840996,0.051090932102565066,0.0,0.0,0.0,0.0066
133,3.0652408653167917,0.25603381394685326,0.08113706761109364,5.70358176360415,0.3558074204779337,-0.07616234162548374,-0.007008677985434173,0.05113075410659731,0.0,0.0,0.0,0.0066500000000000005
134,-2.7311131382505356,0.21031474139896178,0.1387090228664714,4.974963837166924,0.24614873601605747,-0.3846451022819108,0.006392981051261488,0.04275296652050968,0.0,0.0,0.0,0.0067
135,-3.0599960250679046,0.02436556076414802,0.03835975281838641,4.85943303586795,0.10938057426560799,0.40569704930602263,-0.0026345074283339724,0.045393833431352115,0.0,0.0,0.0,0.006750000000000001
136,-3.0698756079952543,-0.02947644744784996,-0.03943538279452981,4.602673126748034,0.24264375448075567,0.7222301655414339,-0.00397571174351262,0.049979033997838644,0.0,0.0,0.0,0.0068000000000000005
137,-2.9145880659772145,0.05335882180107466,0.0860577279013024,5.285409200660975,0.09337440306755579,-0.3375440283953618,0.019455850322397626,0.035744108736958255,0.0,0.0,0.0,0.00685
138,2.9503816069021096,0.14800705733882646,-0.1035632169037337,4.556160975995462,0.40813588529527917,-0.3207637830404956,-0.0008544811528593192,0.028883605254829414,0.0,0.0,0.0,0.006900000000000001
139,-2.6332475880131456,0.13777480245622917,0.32583252999657286,5.27650992529149,0.3060117780747005,-0.18246306566630321,-0.0009987794380420128,0.026318695128684334,0.0,0.0,0.0,0.0069500000000000004
140,2.93600663157603,-0.07138354486511952,0.11663972131095755,5.09331312948308,-0.2192770131746487,0.19078435586197545,0.009479851442803212,0.044428151603692165,0.0,0.0,0.0,0.007000000000000001
141,3.1143037275034042,0.3094866857661206,-0.0433731989296331,4.8125648581041265,0.9930297199892217,-1.6945093075580102,-0.006238413285212479,0.050616633972883754,0.0,0.0,0.0,0.007049999999999999
142,3.0341456738755697,-0.14184097271899362,-0.013187871488151771,5.162927774021958,-0.20943586001020942,0.10047842924893213,0.01114756967834984,0.04313985075984859,0.0,0.0,0.0,0.0070999999999999995
143,-2.9532953077394892,0.10709932054387232,0.31688751231607654,5.3160169770495616,1.4442339853146189,-0.19729699436596881,0.0023977890113008934,0.04513748855536943,0.0,0.0,0.0,0.007149999999999999
144,3.1340497305055135,-0.17963934098457385,0.03817791356144502,5.34669468069643,-0.46739437581602034,0.9526809849630795,-0.006455642179426416,0.02638950937011128,0.0,0.0,0.0,0.0072
145,2.505122117231201,0.12441195529437092,-0.010150449560673291,4.6039699002456205,-0.3156557160009933,-0.0023590561803567,-0.013722680515732121,0.05018324474544041,0.0,0.0,0.0,0.0072499999999999995
146,-2.9692129673599954,0.13433207720681084,-0.07106724470474621,5.3766550055971045,0.13868790396420172,-0.13576515920765347,-0.003076106078871369,0.05067516645715908,0.0,0.0,0.0,0.007299999999999999
147,2.9423246864639716,-0.10973527329066798,0.1839077152094244,4.57323813493262,-0.2920709282960027,0.3644635577988595,0.003819320176489412,0.04685900472890111,0.0,0.0,0.0,0.00735
148,2.9260901434655135,-0.1181268571445017,0.17168854216171392,5.3579682743098465,-0.3458813625602709,0.3405717268751255,-0.002881267112356182,0.03930020530845396,0.0,0.0,0.0,0.0073999999999999995
149,-2.9496916838700833,0.004244421871599349,-0.0584285857237311,4.904223037841512,-0.6949291644484517,-0.35094292945180056,0.003585284919087093,0.03765859214132072,0.0,0.0,0.0,0.00745
150,2.9050893415982433,0.04707266782147585,-0.056864977832579176,5.067965348288706,-0.49822948647215715,-0.7852957874853197,-0.016198828432871563,0.03260067788592262,0.0,0.0,0.0,0.0075000000000000015
151,-2.8803992062148813,0.016870424562380776,0.01312387374084191,5.309658331319963,-0.3393219376051874,0.3059209626803942,0.009121207363434662,0.05375331333199241,0.0,0.0,0.0,0.007550000000000001
152,-2.7995926239200513,0.2786098823534797,-0.10184911156052151,4.909085061837163,-0.8641249520849622,0.1218480242701917,0.009116363575251439,0.046333927249868845,0.0,0.0,0.0,0.007600000000000001
153,-3.0102792039466735,0.1965282473876315,0.07195576178072989,5.021276522272062,-0.5522255394216335,-0.7066238419875932,0.006162380395604382,0.05140197643512787,0.0,0.0,0.0,0.007650000000000001
154,-2.972182636830096,0.13927605963985357,0.054165022300889556,5.6176991670819,-0.7862266398941695,-0.8396332505014423,0.005231066100394591,0.06046546740290892,0.0,0.0,0.0,0.007700000000000001
155,3.0547382903690448,-0.22378338958003005,0.07338760829002601,5.201795173499457,0.14220993555374972,0.6571918790356346,-0.0035180349280893902,0.0644210256775189,0.0,0.0,0.0,0.007750000000000002
156,-2.8415597120536877,0.004649494454121404,0.15902129626255113,4.374957985010296,0.48929923063543856,0.1556636507703242,0.020880741137472975,0.042705488799002565,0.0,0.0,0.0,0.007800000000000001
157,-2.444410785817163,-0.03188651106893074,0.37245855684737944,4.7834221886644,1.3328890963963533,-0.2509453156630626,0.006617683194812766,0.04936696654889105,0.0,0.0,0.0,0.007850000000000001
158,2.853041446259963,0.0303774033312764,0.15541460740161395,5.272656117558556,0.7482111743312273,-0.4074923529039211,0.010745119703738048,0.06015762497409026,0.0,0.0,0.0,0.0079
159,-2.837861677941089,-0.14012731959174654,-0.06109381823852143,4.667921854836903,-0.5674229036426718,0.43335577365331185,0.004841037043142779,0.06007142045795271,0.0,0.0,0.0,0.007950000000000002
160,3.0266333069123443,-0.13438403025754456,0.0067460623327544,5.096693289228959,0.377542432120881,0.11611274360183677,0.012597909001657828,0.049886978042131686,0.0,0.0,0.0,0.008000000000000002
161,2.861395125702581,-0.045105135489700375,-0.0679585755918552,5.021932603119379,-1.0325751551269446,-0.03446628465085383,0.016425216482761504,0.05435437904842366,0.0,0.0,0.0,0.008050000000000002
162,-2.991829150059245,-0.1958615698161044,-0.27146285116395946,4.883474561944507,-0.7953462269293965,1.4469718933342022,-0.01901004499804265,0.03559617101948962,0.0,0.0,0.0,0.008100000000000001
163,-2.77284695333893,0.10689096971832714,0.027028527793038985,4.957858734661895,-0.19937871599737317,0.012138501305098387,0.005098116626311097,0.02396194216539212,0.0,0.0,0.0,0.008150000000000001
164,2.9825506613357877,0.1716575968267003,-0.09289296052933152,5.003913723298336,-0.3243420136329219,0.028583966830576013,0.002081714265267275,0.042718742678960475,0.0,0.0,0.0,0.008200000000000002
165,2.59830383884403,0.07520629908205484,-0.056336165777469194,4.7471748129895,-0.49853451821128947,-0.327497776696734,-0.00917393378885321,0.04649548644677017,0.0,0.0,0.0,0.008250000000000002
166,-2.8913955770366613,0.11958680641708583,0.010068576837904334,5.101043157859287,-0.16181428532865316,-0.14806264137896002,-0.00029686629628172974,0.05446111272601588,0.0,0.0,0.0,0.008300000000000002
167,-2.513339201832389,-0.03921120716314977,-0.07839241354379366,5.2174252838622825,0.18791479311190745,-0.29533242186247577,-0.000288162765395522,0.051080819467287035,0.0,0.0,0.0,0.00835
168,2.9787709562941225,-0.12152854320566055,-0.06933489668146489,5.3512631922930165,0.3226214592325856,0.476701655264388,0.0006930349205396366,0.03824351740365774,0.0,0.0,0.0,0.008400000000000001
169,3.1104506990927945,0.04233569854815857,-0.03152101039979234,4.821462639333603,-0.05536494242214782,-0.6015563225850422,-0.0009586214555371088,0.048333583418663874,0.0,0.0,0.0,0.008450000000000001
170,2.981417785258914,-0.019451519112263383,-0.05792155696392295,4.861591634015702,-0.6812611449349654,-0.07023075602371195,0.020414221049079886,0.04701557497396821,0.0,0.0,0.0,0.0085
171,-2.9995304264854314,-0.012491817202400505,0.04983418072390197,4.820284293764715,0.925566386548876,0.5938165813646834,-0.010943031092100153,0.052315407738674456,0.0,0.0,0.0,0.00855
172,3.032600513147052,-0.0050980670168632655,-0.015356588145907955,5.157806836387179,-0.21239679477222367,-0.7251191294117095,0.01518510923033557,0.042145636198433284,0.0,0.0,0.0,0.0086
173,2.716552400800706,-0.0680896118798956,0.06330446309095354,4.811681934029408,0.604405753042201,0.15947102748093034,0.00465098268969445,0.06244019160874893,0.0,0.0,0.0,0.008650000000000001
174,-2.826583371561459,-0.01976802644909618,0.0017718186143361571,4.794199115362869,-1.0200400388039135,0.6727841220307522,0.004727491241145395,0.0490749104785399,0.0,0.0,0.0,0.008700000000000001
175,-2.965934729664392,0.07724203153547851,0.047940435373838276,4.369769198404946,0.09118883231600633,0.1697604832779706,0.001494991378503696,0.05053968952534018,0.0,0.0,0.0,0.00875
176,-3.046285297041332,-0.26504488914349567,-0.017777650909478707,4.882498499009098,0.757842916158296,0.3567365012792456,-0.005489839602886365,0.06217801373004676,0.0,0.0,0.0,0.0088
177,-3.011431781977362,0.11953114999313397,-0.08447200728583246,4.7780142872035505,-1.0490389226743904,-0.7577874831207488,-0.012097457174581397,0.05364150127520554,0.0,0.0,0.0,0.00885
178,-3.0138407273666354,0.18420231638602272,-0.07064690774941292,4.949739003169646,-0.23270913009521377,-1.2990884483805396,0.0005563070624117175,0.03356908974780651,0.0,0.0,0.0,0.008900000000000002
179,-3.0320980581886787,0.22389030841370589,-0.14407564271928652,5.559474402541898,-0.4209088263409398,0.20932189183330618,-0.00027753789353748533,0.03897748331969599,0.0,0.0,0.0,0.008950000000000001
180,2.9653454414804847,-0.04443611409441978,0.05302001107510728,4.75003253996076,1.4450513297830845,0.8541870563351169,0.009651131116225892,0.03800875701264788,0.0,0.0,0.0,0.009000000000000001
181,-2.3507405032346123,-0.22374978464629539,-0.07665692340421812,5.0268593324353,0.33234539602307145,1.3410782018745901,-0.02023544826018196,0.03870609583351864,0.0,0.0,0.0,0.00905
182,-2.98051031589594,-0.05918686892536682,-0.37390453789027234,4.943428139422,-1.0222756901980241,0.5258223818702488,-0.005333827214357327,0.04410762870603034,0.0,0.0,0.0,0.0091
183,2.897953774544884,-0.04845546507062898,0.11540942226981066,4.641850750731161,-0.7023616135905469,0.519660310384733,0.0017520363266009726,0.06791631678043983,0.0,0.0,0.0,0.009150000000000002
184,-2.763347701280286,-0.05159046394292918,-0.05111845027209714,4.902096420763498,0.12196072426348338,0.5436812810657558,-0.011060497864516086,0.056657882099792646,0.0,0.0,0.0,0.009200000000000002
185,-2.618207014490469,0.0012644864999646766,0.16361371475717848,4.788311266914625,0.6604585391880933,-0.13622546246357825,-0.0002649968487139082,0.0453131229081729,0.0,0.0,0.0,0.009250000000000001
186,2.99047730885279,0.07158016904680224,-0.03290539631979386,4.95001796125718,-0.5808605234961817,-0.13008359791229196,0.005835771544395534,0.035419724165624195,0.0,0.0,0.0,0.009300000000000001
187,-3.0479418597318415,0.14629873162322657,0.018418970585097352,4.943642912241553,-0.26342173556659415,-0.13550452445690336,0.005337832000476635,0.052877779060667665,0.0,0.0,0.0,0.00935
188,2.7328169782280507,-0.11835168081940012,0.11773047325610805,4.906947715831283,0.6894134784323016,0.14150612644324867,0.0033930680144584925,0.0423590840868006,0.0,0.0,0.0,0.009400000000000002
189,-3.1317661599874076,-0.15643013206622475,-0.07170419561241138,5.813873211057311,-0.08317521110149823,0.5227154741168283,0.008858856267628383,0.04751999980801085,0.0,0.0,0.0,0.009450000000000002
190,-2.4674330198677077,-0.012165302895108705,-0.1043289777884148,5.068261185058162,0.4235239194954755,0.358990158055864,-0.007180018258158984,0.05077793363555877,0.0,0.0,0.0,0.009500000000000001
191,2.8340402065461303,-0.022699173477310056,0.017909238135293482,5.579254137358158,0.24611497832110368,0.05196350034892299,-0.0020773702798058823,0.03973651470905019,0.0,0.0,0.0,0.009550000000000001
192,3.04490494859846,-0.11536109082993683,-0.11771261449422875,4.871392001509526,-0.8571784684077466,0.6555013779251457,-0.0012566744244439973,0.0493158716132498,0.0,0.0,0.0,0.009600000000000001
193,-2.9889522100083026,-0.004032390086584126,0.026227897055204563,4.618054957048878,1.185818467711469,-0.6912959069408048,-0.0010102772940260205,0.045974371048937826,0.0,0.0,0.0,0.00965
194,-3.1020082025281384,0.1415294190550189,-0.0213091817930082,5.155686847853856,0.16610752038624874,-0.27935483939214795,0.007471636253701851,0.04114341775704812,0.0,0.0,0.0,0.0097
195,2.641908525355996,0.07575962634436154,0.10436622400550453,4.45865727972687,0.097026476742722,0.48634123431238657,0.005130785082096736,0.06921012299282825,0.0,0.0,0.0,0.00975
196,-2.8074095927063443,0.056144323724689596,0.24578771150240533,4.5011456133335,0.7116489145013071,0.09883781909465181,0.014745965911037495,0.059916783854806005,0.0,0.0,0.0,0.0098
197,-2.58291018976785,0.1245529677167011,0.019945975446324364,4.559610997837548,-0.7772556038458512,-0.474177007271478,-0.005116789751898052,0.04061251739416086,0.0,0.0,0.0,0.009850000000000001
198,3.1080788334523715,-0.22327509523783143,0.07019582712470031,5.366924473008036,-0.13116866748194156,0.40614247125513914,0.002240184379701795,0.06084017467068005,0.0,0.0,0.0,0.0099
199,-2.6975292723464106,0.22348887719216767,0.1818894637703669,5.157215440070844,0.21147779274638046,-0.8943569384149431,-0.0027818420906527016,0.05341509119082509,0.0,0.0,0.0,0.00995
200,2.7623658980498256,0.05298721195921556,-0.027907250382003344,5.13943687432007,-0.0037841979786644164,-0.031001491343439533,-0.00800275075216361,0.07160653229169955,0.0,0.0,0.0,0.01
201,3.1155120491951176,0.21300850935694468,0.003999470473950594,5.042481992142274,0.7923811369424897,-0.4999780507166107,0.004733338845825257,0.05673916381700264,0.0,0.0,0.0,0.010050000000000002
202,-3.0409284016056968,-0.08471154181397375,0.08878680156920768,4.869242004807832,0.7436263510817016,-0.3355291841060014,-0.0002392623039311178,0.05387005369847098,0.0,0.0,0.0,0.010100000000000001
203,-3.000943744176346,0.09902605303524198,-0.1344880722184455,4.954725627362437,-0.24999585111318617,0.2533596214285121,-0.008623275317514544,0.048498016622139234,0.0,0.0,0.0,0.010150000000000003
204,-3.0220145035507735,0.21696126280805492,0.07898184527159628,4.995422794606662,-1.122906205403584,-1.076119461284845,0.009928780533975362,0.053102793500577866,0.0,0.0,0.0,0.0102
205,-2.548319036813472,0.018869359954341063,-0.2624840133873129,5.419564891947509,-0.9424084176653659,0.12435224631481973,0.009544440370507995,0.05320817414411976,0.0,0.0,0.0,0.010249999999999999
206,2.991012243861188,0.371105768794639,-0.19477066601295653,4.712935124901905,0.061552708787963595,-0.9189511210866069,0.0034724897241897833,0.0404432076924721,0.0,0.0,0.0,0.0103
207,-2.6357773306238346,0.15995290332435974,-0.06727163933073999,4.861807977427582,-0.1037880544599116,-0.060540118176504676,0.007484886360889055,0.04789247122952929,0.0,0.0,0.0,0.01035
208,-2.9238671832675807,0.20367691322717157,-0.01174083324438053,5.195316370812014,-0.030816087007321497,-0.7301289706662738,-0.0024559061881280794,0.048457632434185424,0.0,0.0,0.0,0.010400000000000001
209,2.9349705639039745,-0.157183278528793,-0.15523412543229073,5.43938805658852,-0.3379292358234663,-0.7111855388346733,0.008757828799600428,0.04809030010482712,0.0,0.0,0.0,0.01045
210,2.927685985971901,0.03998911263447917,-0.08273015482083544,5.093056113118114,-0.6106545927584306,0.1518888510207037,-0.02129716552186599,0.04413211854569507,0.0,0.0,0.0,0.0105
211,-3.0858975831328617,-0.19006248016051572,-0.09646617319705922,4.5981002912155,0.2556067958110958,0.3650047633235766,-0.010899722574077389,0.055934162800053526,0.0,0.0,0.0,0.01055
212,-2.6701738682400427,0.055837533889858286,-0.0029024757869272836,4.765286181674494,-0.16865953755175583,0.036172804646084675,-0.011180250882802,0.04047217265229665,0.0,0.0,0.0,0.010600000000000002
213,2.7749399323512085,0.026067941174337292,0.07979592455001729,5.347516977664117,0.1149779754312889,-0.1411368216038796,-0.004025089147641842,0.052166703548871485,0.0,0.0,0.0,0.01065
214,-2.908054159527209,-0.03817574186972495,-0.06521872731867936,5.0758514167925,0.2705348213054578,0.05128206766151556,-0.005953911655650828,0.053085710968996114,0.0,0.0,0.0,0.010700000000000001
215,-2.9309281532967595,0.07083745765624305,-0.03591597051195383,4.781578768308989,-0.11411266990600843,-0.5678696633936505,-0.01847935181459592,0.016794115977500988,0.0,0.0,0.0,0.01075
216,2.672214573492006,0.10257997647274146,0.15046534331410816,5.253237758496913,1.0720252857285657,0.08002375777190485,-0.002504329993910597,0.05142588323340123,0.0,0.0,0.0,0.0108
217,2.7440006175553564,0.21793266200433267,0.08780362332839464,5.755415877446549,0.40591494639888315,-0.535567366113547,-0.01701838250400896,0.04941701750822857,0.0,0.0,0.0,0.01085
218,2.941875694946898,-0.02183678228781823,-0.1282133536374327,4.376885619088927,0.32046382645765625,-0.3265659919867619,-0.013401230925976818,0.06507894276324648,0.0,0.0,0.0,0.010900000000000002
219,-2.687163664865405,-0.0011034663111961348,-0.03649728601665602,5.031875744322504,-0.813280410346882,-1.1900895902111197,-0.00892403168730726,0.054155162236266104,0.0,0.0,0.0,0.01095
220,3.0108734956989687,0.09329269583528553,-0.07403388274823951,4.759878465452901,-0.4014514301602836,-1.1763663187097118,-0.01273762334060712,0.059642703071269704,0.0,0.0,0.0,0.011000000000000001
221,2.993836290470876,-0.03894666242953328,0.06204901688212258,5.681929373093024,0.30187149724974444,0.033921421197374985,0.006367353607370888,0.04947006944910168,0.0,0.0,0.0,0.01105
222,-3.0311916780604995,0.1627687206642148,-0.043132155169404815,5.2106250885787535,0.040407888038671236,-1.435605213271509,-0.014012212850799394,0.05589743337877443,0.0,0.0,0.0,0.011100000000000002
223,2.8446425426163278,0.05999714845849557,0.028734554711113244,4.995884954736159,0.12127204222862056,0.670639914631493,0.006813744603144621,0.04744863526519051,0.0,0.0,0.0,0.01115
224,-2.5248259734436744,0.27670435409006067,0.17330205324982925,5.127011236679203,0.46221896536408347,-0.681636222447358,0.015750619440725887,0.05882520025117412,0.0,0.0,0.0,0.011200000000000002
225,-3.091622181019062,0.3063848054708661,0.10791929202905436,4.53578846635709,-0.1467305920744021,-0.970448239745458,0.01556590699631252,0.0514261095346354,0.0,0.0,0.0,0.01125
226,-2.8073495394270602,-0.13337356520718072,-0.04928009719018182,4.65804336146561,0.6582322184010889,0.23957019693840845,0.008335409996163383,0.057270303917140976,0.0,0.0,0.0,0.011300000000000001
227,2.8198873574977976,-0.002205591358158281,-0.17045369537152066,4.647137825755366,-0.6699047443694619,-0.14725182313133228,0.00019471073328080908,0.05438458222167572,0.0,0.0,0.0,0.01135
228,2.707201510722871,0.05121476414825864,-0.019612098373258873,4.904584304912779,0.11350361212238864,-0.6285801682477876,0.009000752970025032,0.05050803143259302,0.0,0.0,0.0,0.011400000000000002
229,-3.094934729735074,0.08468064053627593,-0.20424232906867681,5.10032376265138,0.15820543374266793,-0.2671725536257964,-6.658713001670466e-05,0.0411838254258413,0.0,0.0,0.0,0.01145
230,2.9573031790737945,0.012367387743458105,0.11054063476038391,4.411651757354595,0.011480826997482985,0.19957618903018534,0.0021717643109292126,0.03888342838997102,0.0,0.0,0.0,0.011500000000000002
231,-2.804119314577593,-0.08038784857486611,0.10552992093309457,5.127128372133072,0.03500080507218989,-0.1162250303265839,-0.006602929796837987,0.03800741567783137,0.0,0.0,0.0,0.011550000000000001
232,3.0169548844069505,-0.19445642562101395,-0.16447012194103902,4.837515562121287,-1.3992863005372622,1.5100170541730344,-0.0075105391070411295,0.06864076240650666,0.0,0.0,0.0,0.0116
233,2.682741529559888,-0.031546712877107135,-0.2825686789269,4.802443548264388,-0.9444949262150443,-0.18908978736847576,-0.02126528579527784,0.06275404395713706,0.0,0.0,0.0,0.01165
234,2.7115043714148652,-0.21433194589635618,-0.09042915543400164,4.732761174486955,-1.1409003515423048,-0.01741677985214174,-0.005553087447932055,0.05294595030286212,0.0,0.0,0.0,0.011699999999999999
235,-3.006006808458613,0.07561302455656153,0.12816885184883975,4.740674612657912,-0.051575540872600856,-0.7659191966328652,0.019495558484082035,0.056497232390054886,0.0,0.0,0.0,0.01175
236,2.8971756153168475,0.09587056739444967,-0.040262612007691996,5.39272789679424,0.3008300395410943,0.16776342455885884,0.010775667527751956,0.0633966814105949,0.0,0.0,0.0,0.0118
237,-2.5626630370649175,0.00622670573884176,-0.039898972712289774,4.653556585436595,0.5260728733906577,0.10944406032600293,0.001989768684880974,0.04128783361562744,0.0,0.0,0.0,0.011850000000000001
238,-3.0401873110166373,0.04145287219461286,0.0651516672427227,4.917148180564031,-0.036934654111572346,0.14793629574644646,-0.004609656765687381,0.03829373528229123,0.0,0.0,0.0,0.011899999999999999
239,2.7408466604526196,0.012967782161137266,-0.1938918056163528,4.750309795436383,-0.6001756485367196,-1.0247258978020997,0.0010206788130323785,0.06280795059409156,0.0,0.0,0.0,0.01195
240,3.037610041899838,-0.024388554986072668,0.04448627739749333,5.614712493035342,1.149041434864135,-0.3312004988575561,0.005591868922469175,0.05564493776204947,0.0,0.0,0.0,0.012
241,2.9907340215500637,0.014396211530214587,-0.1954522466584804,4.898932741350013,-1.160459452005449,0.27865380204425894,0.00794315466948341,0.05879568679167257,0.0,0.0,0.0,0.012050000000000002
242,-3.1309048294663735,0.013842818937028763,0.024073934063521655,5.115655695187035,0.46117600255479324,-0.38238656259547515,-0.009987053392899624,0.04307655085485454,0.0,0.0,0.0,0.0121
243,3.0103342577449737,0.17099572978014033,0.08125604338882124,4.962805468904781,0.6337417164214847,-0.06395171753690432,-0.0055263347543556725,0.043960494955667034,0.0,0.0,0.0,0.012150000000000001
244,-2.9793119882722663,0.01571536428281559,-0.24902871294991813,5.406611214260695,-1.065549244713322,-0.7707023549683512,0.008919521270851412,0.05383919395699992,0.0,0.0,0.0,0.012199999999999999
245,-3.0487027665866684,0.24859134505254946,-0.028492730725836413,4.958180743547291,-0.1989138226219016,-0.2578749087238119,-0.001430321007184395,0.042222895566045325,0.0,0.0,0.0,0.01225
246,-2.971624186930901,0.10112721723262727,0.028789224273765415,5.733649687302784,-0.0351972286400275,-0.5566015997648998,0.006619189308435148,0.041162781588001435,0.0,0.0,0.0,0.0123
247,-2.97594010430741,-0.05530946589213873,-0.15848687489218183,4.949098842245987,0.031863623385325834,-0.5869961137515147,0.003223835131768505,0.05926613932999443,0.0,0.0,0.0,0.012350000000000002
248,2.4266734897952187,0.09496313487659792,-0.021841234238369728,5.014914738909937,0.18228131102232556,-0.18208839863839138,-0.0114157400064185,0.03814535293037649,0.0,0.0,0.0,0.0124
249,3.081835643892948,-0.4321902699946647,-0.3103325708674836,4.74205114028231,-1.474595719968813,0.4012806313230941,-0.004931885759744553,0.03330205253181615,0.0,0.0,0.0,0.012450000000000001
250,3.0486649170697087,0.19448415037511302,0.030672186318517827,5.293395437722128,0.8481389085572959,-1.3380559204504088,0.014998133736496944,0.05337312153090972,0.0,0.0,0.0,0.0125
251,-2.734604279716241,-0.20150935988685306,0.010946279071607268,4.855235427903929,0.35291973988043684,1.067821218596589,0.0027316487645017264,0.05030432816565845,0.0,0.0,0.0,0.012550000000000002
252,2.728679567343782,-0.020561426566027916,-0.10752353422688052,5.035902055753469,-0.3093090371130513,0.05628659318270432,-0.001163284077643965,0.05562434504727409,0.0,0.0,0.0,0.0126
253,2.9835537972220405,0.14440206896410415,-0.1559797771378083,4.7655089722973285,0.24884813487589208,-0.11516067757871487,0.004711111704741378,0.050332231344257454,0.0,0.0,0.0,0.012650000000000003
254,-2.9177522009886956,-0.1376588881482003,0.012205230297278935,5.070150057244697,-0.11360773551667974,0.25866482386113826,0.010135965937113075,0.03675575423851543,0.0,0.0,0.0,0.0127
255,-2.334138792096044,-0.004890202695462427,-0.057792365351231736,5.3739556885279685,0.5117316052573135,-0.21966834836554264,-0.011213257308103006,0.05171678436832882,0.0,0.0,0.0,0.012750000000000003
256,2.731944374549375,0.022731202939008145,-0.12815617864014356,5.109381571656684,-0.2292898232595591,-0.46385897687986016,-0.020220676017314785,0.050440129943023104,0.0,0.0,0.0,0.0128
257,-3.0026680052308263,-0.009395359036127983,0.05897927058160211,5.2584778917041595,0.595213153070227,-0.5484581167403189,0.0013979463199758116,0.04912218357737527,0.0,0.0,0.0,0.01285
258,2.90122250121511,0.2553690190282189,0.12825744662288563,4.96990016943853,0.40487386748172577,-1.0292417258903568,0.001606197309484083,0.04509364014548561,0.0,0.0,0.0,0.0129
259,-2.4581232469962875,-0.042523490110000006,0.18427469694559967,5.011420681881574,0.9148483719074487,-0.03734123315288157,-0.011781884851607147,0.03679653983170001,0.0,0.0,0.0,0.01295
260,-2.7495424750137962,0.22521002184147879,-0.32340342043483145,5.462265908286394,-1.3534074519828292,0.5433423783122102,0.00856921002479136,0.06001747210676918,0.0,0.0,0.0,0.013000000000000001
261,2.8634879250136787,0.16857782099780894,-0.3979828053497967,5.535453376962978,-0.5666601772283808,-1.3031784806716047,-0.006439432282715513,0.0489014349411338,0.0,0.0,0.0,0.01305
262,-2.896505696998035,-0.12875367163945603,0.14890663823991102,5.182901340872259,-0.07464515056687271,0.16391754328440955,0.015095670453640514,0.04101009967488934,0.0,0.0,0.0,0.0131
263,2.6169323381124023,0.0735942636140486,0.00834085042328087,5.066074415240731,-0.39135233614510034,-0.4457473440877504,0.0007103205708719426,0.041128579233809706,0.0,0.0,0.0,0.01315
264,3.1001277607311244,-0.3882578790328856,0.1373967904934322,4.5438961087580605,-0.8003856041057446,2.0631747013117643,0.010810776466555126,0.04704674150029178,0.0,0.0,0.0,0.0132
265,-2.7893404005926907,0.04343426538804645,-0.058253620482850973,4.851122976984118,0.6544249394322906,0.12769592734058333,0.001310859556437548,0.05476631067762662,0.0,0.0,0.0,0.013250000000000001
266,2.469688071788633,-0.06110574256813774,0.026112801963993064,5.253017181474687,-0.006140358447781019,0.23884979144345858,-0.009801311547400899,0.03517581437670589,0.0,0.0,0.0,0.013300000000000001
267,2.5880685365809084,0.07771571452115734,-0.0726337745607486,5.249414344427325,0.01760317974692821,0.045889811282168805,-0.007142900285292851,0.06237782190279499,0.0,0.0,0.0,0.01335
268,-3.028291120317834,0.3193316735768963,-0.03395642127446137,4.685925004164511,-0.2709121661875451,-0.6362390878361712,-0.004431053757355624,0.04706615725127559,0.0,0.0,0.0,0.0134
269,-2.2940515649116806,-0.13597089437709314,0.03628176340970511,5.360240986110166,0.1348168737753393,-0.06301428232725087,0.005247564113073134,0.03382070707194104,0.0,0.0,0.0,0.01345
270,3.0306150811050387,-0.1627938690720116,-0.07700820911620686,5.139235462362245,-0.3736379770433639,0.23813123954057525,-0.0016066362677981966,0.06029536715106516,0.0,0.0,0.0,0.013500000000000002
271,-2.5678885713387705,-0.059203167213757825,0.14175474352564213,5.00261948290145,0.865359670802202,-0.21501209072484362,-0.011018133505286593,0.05117662033252233,0.0,0.0,0.0,0.013550000000000001
272,-2.9393819237738765,-0.16162002391358904,-0.18358656936013992,5.139091254596579,-0.0710999831480017,-0.089829019421118,0.008786534564471081,0.06004817335017398,0.0,0.0,0.0,0.013600000000000001
273,-3.0129000448569494,0.13563685715583138,-0.1691679666088308,4.879343713963422,-0.6421306668304682,0.28682542134015865,-0.004861516133656775,0.05975104863153789,0.0,0.0,0.0,0.01365
274,2.527029978491957,-0.09150771333707805,-0.03979757320045999,4.741624252792681,-0.22776015959772,0.38181653359045115,-0.003756325611857122,0.056089613022528476,0.0,0.0,0.0,0.0137
275,-2.961636735491544,-0.271414210653718,-0.23620141100974465,5.202198967281247,0.304145245058167,0.24622149738433396,-0.0021946005928426076,0.04512918521282093,0.0,0.0,0.0,0.013750000000000002
276,2.799674985469908,-0.06540850543462587,-0.14522282528316655,5.128131077608016,-0.4051755868408603,-0.23650108000530587,0.0019158135050226224,0.04019892671200043,0.0,0.0,0.0,0.013800000000000002
277,-3.029192459551667,0.0867517654790329,-0.1077512992536235,4.747107216304087,-0.35509171049695754,0.010140054729488868,-0.0016174101054496194,0.036653960292558255,0.0,0.0,0.0,0.013850000000000001
278,-2.714897801731072,0.020772247035142032,-0.0703501900737155,5.033126270391439,0.14489064780364083,-0.2419394206555543,-0.01327917418579433,0.05416678562241153,0.0,0.0,0.0,0.013900000000000001
279,-3.116269133641716,0.1883078179053639,-0.08654025916487738,5.366838275298128,0.20963069258513853,-0.6203611772283917,0.0009198367300293362,0.06934811570192553,0.0,0.0,0.0,0.01395
280,2.8852999391054808,-0.13834714328886838,0.04737831574527839,5.303403991212381,-0.6453254501282915,0.15835800239687248,-0.006344047907302073,0.046136099267620606,0.0,0.0,0.0,0.014000000000000002
281,3.1336970825410644,0.11514154515366834,-0.10861921024385511,5.4164287994550895,0.13858373227651338,-0.6348712229939792,-0.003455851509129801,0.04745983960209714,0.0,0.0,0.0,0.014050000000000002
282,-2.858542858323721,0.10272318285142691,0.1659685486456022,5.22514790829638,-0.12497287608689533,-1.2217203647584085,0.00833261152575391,0.04943418086135694,0.0,0.0,0.0,0.014099999999999998
283,2.8848943742937756,0.053531829100584634,-0.029609497709608093,5.5756295329329895,0.8090096471925374,-0.8064066042800717,-0.018102255131098904,0.05042014685075725,0.0,0.0,0.0,0.014150000000000001
284,3.0368125798698062,-0.11975522178791151,0.0679377475826275,4.8097220805613095,-0.5272511688762911,0.4160652734229687,0.007684716387634085,0.05766062860988321,0.0,0.0,0.0,0.014199999999999999
285,2.963331517526199,0.15021560968060751,0.26327228625056776,4.997545427061555,0.2577715723740163,-0.433119924026824,0.00818581274714507,0.04825335304106906,0.0,0.0,0.0,0.014250000000000002
286,-3.0795400123999412,-0.1266967599543649,0.004293876823019656,5.188471766899585,0.5826241762504197,0.7572556123176643,-0.00663533988716079,0.031541542764377234,0.0,0.0,0.0,0.014299999999999998
287,2.437441954367623,-0.01179933146383526,0.09924228229641287,5.204245053095757,0.3365494346073987,-0.0077722887847881394,-0.005356476917971437,0.04090566395676115,0.0,0.0,0.0,0.014350000000000002
288,-2.6446006918971614,-0.15168543829082295,-0.11113555620932572,4.522282453166077,0.21381594358781297,0.6290659750071076,0.006817799944740312,0.03543699462121151,0.0,0.0,0.0,0.0144
289,-3.1130820243149984,-0.14868514057096385,-0.21286464456632215,4.654247695430516,-0.34873079517022143,-0.17301992808613542,0.003301504250717344,0.04159403559161835,0.0,0.0,0.0,0.014450000000000001
290,-2.8218148447180003,0.10699029557509993,0.05667512628406783,4.864002715796884,-1.1986060362658408,-0.9600861809664742,-0.01367541490166077,0.05806376280091613,0.0,0.0,0.0,0.014499999999999999
291,2.9986931004361144,0.12082429568339297,0.05790349798908736,4.88990027557818,0.5179787173233688,-0.6499596277977642,-0.0065701611645360355,0.05139026428325891,0.0,0.0,0.0,0.014550000000000002
292,-3.007358621943415,-0.10119330038946647,0.05523698485786071,4.9421711639974015,1.000492584767179,0.24273794305104007,-0.00853079016287099,0.07021441495096062,0.0,0.0,0.0,0.014599999999999998
293,2.875678039509686,0.14448990135991663,-0.07999213633633154,5.315270917185864,0.41019720422056005,-0.9587080395768908,-0.005283566598876737,0.03229380631043659,0.0,0.0,0.0,0.014650000000000002
294,-3.0726168477457843,0.1469784583543877,0.21329932447558958,5.105850509761984,0.21126231609674984,-0.5567004163824976,-0.001371450277794097,0.05384704648328313,0.0,0.0,0.0,0.0147
295,3.0693593331739693,-0.06775130779084769,-0.14581937092534458,4.849977503415147,-0.9492327815993251,-0.5167939162657259,-0.01776374992553319,0.06588917943854133,0.0,0.0,0.0,0.014750000000000003
296,-2.8722696466821747,0.17734069076427272,0.21481934138743164,5.090179257041777,0.3304912976242399,-0.5025134879778708,0.006691574420244602,0.044126690202730724,0.0,0.0,0.0,0.014799999999999999
297,2.8345518424779126,0.2904082401675988,-0.15446135311518128,5.376803592739218,-0.44667977361197586,-1.1351752051584536,0.014783347273022525,0.04367123986403501,0.0,0.0,0.0,0.014850000000000002
298,-2.9479259124950765,0.10795317401590776,-0.061561523789697425,5.003060359342148,-0.3603689650189242,-1.1669250227751073,-0.0036058557422182663,0.05224977819889086,0.0,0.0,0.0,0.0149
299,2.695602905705427,-0.12619182171830073,-0.024997871435005186,4.905094591147051,-0.5465125617576378,0.7836481830191553,0.014683763334881073,0.038354307347286495,0.0,0.0,0.0,0.014950000000000001
300,-3.0835262160832415,0.1770663854200513,0.31711914289317944,4.742006783146761,0.4773502524647649,-0.9141021946723351,-0.014926479384088483,0.07128215950594201,0.0,0.0,0.0,0.015000000000000003
301,2.948922672797352,-0.05703657688737571,-0.25679319390337857,5.023095392303785,-1.2948736633335782,-0.588483716546477,0.0007523155788708466,0.05038117953162025,0.0,0.0,0.0,0.015050000000000003
302,-2.7415615345802378,-0.26591516334246235,0.3077931855013284,5.221759960762911,0.32781531735209335,0.14337616220014793,0.0034422555299698926,0.03294314681571646,0.0,0.0,0.0,0.015100000000000002
303,-3.09823726886266,-0.1626826635816284,-0.28953802687671987,4.89275729990951,-0.5379609336928511,0.3079957031001115,-0.015833494114229952,0.06241202750324316,0.0,0.0,0.0,0.015150000000000002
304,-3.090180006030077,0.14898106685160503,-0.22290967407468953,5.1928884520768595,-0.6207009296730039,0.15563338155281747,0.0031774478205173493,0.06141531200425896,0.0,0.0,0.0,0.015200000000000002
305,-3.107448867388293,0.02124876467553841,-0.00925627031410109,4.994158016875925,-0.2833598813723502,0.22145484944698143,-0.0032698498523802437,0.028252390108059695,0.0,0.0,0.0,0.015250000000000003
306,-2.8822946029797607,-0.23451867284108216,0.08402911521582196,5.2517185117324034,1.5280104731957005,0.9536237910204707,-0.015093100650965434,0.050589454133213634,0.0,0.0,0.0,0.015300000000000003
307,2.8360676909295215,-0.016196878683640663,0.1514741057427598,5.094073252517215,0.3100791088134417,0.714785865318091,-0.004813168046984206,0.05470147382458456,0.0,0.0,0.0,0.015350000000000003
308,-2.985762027268987,0.031146882806330847,0.04121758097485628,4.927389281186443,0.3039163319003984,0.11438436825232849,-0.0041034972411476784,0.045753466101571286,0.0,0.0,0.0,0.015400000000000002
309,2.7779029334907452,0.02449319340856272,-0.1063363856865109,5.182342191714129,0.10514914727321212,0.44422454482717977,-0.006270395529550957,0.048772848682338235,0.0,0.0,0.0,0.01545
310,2.98839321180296,0.30722424281635535,-0.08270141269462944,4.9670509859684735,0.19150582530349203,-1.622730838878716,-0.0015664532906628083,0.03941094493118252,0.0,0.0,0.0,0.015500000000000003
311,-2.8488380189874922,-0.0008611075716679084,0.15058227901185028,5.556219884959984,-0.11747807573084368,-0.7681828312567145,-0.015781215006549738,0.05898367129125854,0.0,0.0,0.0,0.01555
312,-2.6943178226573323,-0.06755099371382454,-0.08686379613402768,4.35209183857136,0.4657501633455311,0.8470974149554196,-0.018908209864205393,0.060411981048018995,0.0,0.0,0.0,0.015600000000000003
313,2.7760893076077595,0.10457289326080527,-0.20253501438103147,4.802937470879223,-0.5114702507727085,-0.7928513612756082,-0.004403624702426985,0.038385036846631894,0.0,0.0,0.0,0.01565
314,-3.0686389777995244,0.2958470225975468,0.024857017180081997,5.441295599721945,0.25884624748686025,-1.0812883884844007,0.005606158550604852,0.042891282613920334,0.0,0.0,0.0,0.015700000000000002
315,-2.5082076623120355,-0.0660975482989563,0.024225310303929524,4.917577556488899,-0.52112957162807,0.3073977731064032,-0.01591831991897751,0.06900818868774385,0.0,0.0,0.0,0.01575
316,3.012709857872605,0.05945724003071655,0.19396868095399677,5.171040027104485,0.646015477402195,0.9602000452655663,0.008071015718989208,0.05058705628798305,0.0,0.0,0.0,0.0158
317,-3.086483325500634,0.17662283880016713,-0.02700192592331428,5.626617160382432,-0.11976901599705753,-0.8917723822692424,0.0038727654027057943,0.03466156385404287,0.0,0.0,0.0,0.01585
318,-2.861888835872354,-0.1218244605870742,0.05497568275579935,5.077353021700295,-0.3496133116447891,0.509783232328596,-0.0012876270096049737,0.037540571197975915,0.0,0.0,0.0,0.015900000000000004
319,-2.249606817854268,0.10407838115313352,0.06161117147764388,4.9957203747048515,-0.1446812091711469,-0.7117291503445178,0.00720094199931282,0.0546471361677134,0.0,0.0,0.0,0.01595
320,-2.827748591553231,-0.11184772289172844,0.06010930811324861,5.032785970855124,0.542783086855385,0.3884380463952192,0.0021285901267288536,0.03678580890989372,0.0,0.0,0.0,0.016000000000000004
321,-2.8762258913137297,0.12170880036182012,0.04514079617020582,5.122673249738515,-0.33096971435468314,-0.34579694163136987,-0.005298300410973395,0.05303518529314321,0.0,0.0,0.0,0.016050000000000002
322,2.6576171062529563,0.3616114510793235,-0.07437129074921028,5.101664191708395,0.08849882164717537,-1.3352558135164885,-0.002375661218740276,0.04348894513629172,0.0,0.0,0.0,0.016100000000000003
323,2.9689902847389735,-0.005524842801492972,0.20822207492635114,5.325289953179619,0.11786013810204465,0.28880032833972524,-0.018798585824841,0.04785547725398654,0.0,0.0,0.0,0.01615
324,2.8972152496079135,0.07531565921519523,0.061494303737472326,4.751911425918915,0.39225221604082855,-0.1209249954900477,-0.006758466859030285,0.03289090471185878,0.0,0.0,0.0,0.016200000000000003
325,2.650533278344315,-0.13698226889497694,-0.1445428203834099,5.494819271964852,0.30451306485724317,0.034048992604560735,-0.005350002446799863,0.051820783034981104,0.0,0.0,0.0,0.01625
326,2.8803962163160337,0.061746255692745486,-0.06099695388041561,5.104274670051675,-0.36649258392852435,-0.4314337635532334,-0.0023414269446388,0.04276083937314129,0.0,0.0,0.0,0.016300000000000002
327,-2.940963020063641,0.0029165606522122004,-0.05464112409191936,4.776080645629873,-0.0603802995538634,-0.21433218999637044,0.005363473386313402,0.05313105480322065,0.0,0.0,0.0,0.01635
328,-2.5506214054115652,-0.003553569730589227,0.2041653528717365,4.938921479253526,0.43574433999146417,0.49912924305048856,0.01667055747112085,0.05309293796594921,0.0,0.0,0.0,0.016400000000000005
329,-2.710219380837267,0.09305498517375797,0.10780601525830885,5.049866073050955,0.41760569093422334,-0.18167044239964494,-0.021904108987156404,0.04552607416929612,0.0,0.0,0.0,0.01645
330,-2.8874270078585758,-0.021190664883839135,-0.13688539037258485,4.913119732712701,0.24282094779972863,0.3195589224632256,-0.014318516485278113,0.05769626861181645,0.0,0.0,0.0,0.016500000000000004
331,-2.585342062860614,-0.07038505122384539,0.12925667956334042,4.933962909320063,0.7820723686704758,0.7187195114555129,-0.0016819134670911923,0.03169928702196796,0.0,0.0,0.0,0.016550000000000002
332,-2.712066019037457,0.10332225165256732,0.02108570932815397,4.820974983391023,0.28327195353725343,-0.6736383683083416,-0.0023643987974929885,0.06369524866965301,0.0,0.0,0.0,0.016600000000000004
333,3.0946326514602887,-0.03447468591160782,0.06415298112479466,5.694883365876329,0.34041441021957985,-0.4921891422808314,-0.0012561859055635434,0.04790023092914171,0.0,0.0,0.0,0.01665
334,-3.0337147249992866,0.247666087923693,0.19373894465759547,4.812179438873889,0.4722328456483804,-1.461467987343402,0.004011908547217577,0.049640063255855155,0.0,0.0,0.0,0.0167
335,2.907750372929757,0.03622025582486139,0.06975527955240136,4.5476990160351285,-0.5547745155929795,0.39816530970336894,-0.016219870565388553,0.04408797479676395,0.0,0.0,0.0,0.01675
336,2.9968820623888144,-0.018337728748896862,-0.002473967209270456,4.88238441076717,-0.7373995632173523,0.535512279253963,-0.0007691644229225131,0.02905429556615745,0.0,0.0,0.0,0.016800000000000002
337,3.102507999746909,-0.10913390092378229,0.058420160351853226,5.100706079056982,0.4920366497541757,0.0320614061311065,-0.0104774073752568,0.05391797870372971,0.0,0.0,0.0,0.01685
338,3.107271338981402,-0.23924831985405587,-0.19908141977497382,4.878520057759371,-0.7311057961096291,-0.6134800794825568,-0.0025033161290589395,0.06332608152332275,0.0,0.0,0.0,0.016900000000000002
339,2.9750265181276356,0.07109714791969808,-0.26187089407631575,4.85069388421212,-0.5635877335005459,-0.872605248214969,0.011356205086003657,0.0288968957074995,0.0,0.0,0.0,0.01695
340,2.7788888494515342,-0.008635786281430313,-0.24941529690602143,5.218021799207429,-0.6384813919625676,-0.23939152555521956,-0.016452654480962236,0.053776097227374274,0.0,0.0,0.0,0.017
341,2.736969605500241,-0.01796610390252972,-0.17951857623230824,5.554508822862249,-0.24279718656161325,-0.2110455414198614,-0.0003474113604947605,0.04241178617125756,0.0,0.0,0.0,0.017050000000000003
342,-3.0833507413382955,-0.08452809027411465,0.11265587073570235,5.275674275709435,0.7810326731320618,0.2038900180588855,-0.013660514439921303,0.05784713745284419,0.0,0.0,0.0,0.0171
343,3.0361824319657527,-0.14673028234317934,0.14961318516399064,4.376782576010556,0.1392082567084364,0.7861441997483407,-0.004367884388046996,0.043707605308217067,0.0,0.0,0.0,0.017150000000000002
344,2.7125544516069926,0.015984932492213333,0.3129454089309706,4.876856973944536,1.3087025797239697,1.0518783955105429,0.003013780170875264,0.05162700338400812,0.0,0.0,0.0,0.0172
345,2.792890032966201,-0.038681948370202675,0.4030869270374853,4.464152423956604,1.4082904232174323,0.5260109860849644,-0.01593823491190924,0.041551923295551074,0.0,0.0,0.0,0.01725
346,-3.009785230648517,0.07881725442230882,0.09055850333200272,4.768581532421683,-0.7293868290414135,-0.013713124190863915,0.004605036415166694,0.05497248458929169,0.0,0.0,0.0,0.017300000000000003
347,-2.9113541873182704,0.026545424708972778,0.10887812975011436,5.012020304834729,0.4904044233502709,0.4668024447134561,-0.0016599682338735093,0.06016279433379564,0.0,0.0,0.0,0.01735
348,-2.8634945285618305,0.0756869817585179,0.24196274829815864,4.979150085156213,0.28097198175062477,-1.176468843872469,-0.00022925523893311053,0.05229827323059492,0.0,0.0,0.0,0.017400000000000002
349,-3.060677849486365,0.08554609708221184,-0.16377011836346314,5.329920662306375,-0.493807105844179,1.0051276511175207,-0.0028281335277538368,0.04409085064099854,0.0,0.0,0.0,0.01745
350,2.6014058851218635,-0.07418541356558489,0.14228823408576377,4.622257708128531,0.23886169651080497,1.0235747488784286,0.011823685993653663,0.06068028257363535,0.0,0.0,0.0,0.0175
351,-3.129715832581346,0.12445141652748512,-0.016819596463239245,4.760156914057563,-0.9231438713145224,0.057184202871875256,0.006770429716582257,0.05726337513847923,0.0,0.0,0.0,0.017550000000000003
352,2.9544344874072945,-0.057192687643849355,-0.02515140062962322,4.54998507907594,0.33250283112022533,0.3714933805827594,0.00217472217157932,0.06426124742146537,0.0,0.0,0.0,0.0176
353,-2.8159693417369716,-0.11712264632634166,0.13397036682675584,4.873874387890747,1.0340872228573745,0.6068474181446912,0.009182267172322015,0.026160328748444612,0.0,0.0,0.0,0.017650000000000002
354,3.1094809032736093,0.023269785859691344,-0.07641931462833021,4.593669216533539,-0.35389566607309053,0.3359371633998985,0.011019045467564123,0.02898966457068863,0.0,0.0,0.0,0.0177
355,-2.736834118332668,-0.16170373735711763,0.3320486264194037,4.603758615482416,0.7362751633049851,-0.2600182615414308,0.007297678565357018,0.05639431624683555,0.0,0.0,0.0,0.017750000000000002
356,2.932638540205974,-0.03255820025047367,-0.13453189004574692,5.110740362748979,-0.6090817724217719,-0.6127331017742629,-0.006840249607625272,0.05191142132124523,0.0,0.0,0.0,0.017800000000000003
357,2.939133533692123,0.06899185788729786,0.17925666491569886,5.066812169031724,0.11209130927432337,0.7281191955769888,-0.019390069560902796,0.043674529195732295,0.0,0.0,0.0,0.01785
358,-2.7730369182377848,-0.0799372171905495,-0.1516982415139026,5.555526170316961,-0.04646241021764319,-0.5406536934762358,0.002778157549344268,0.05085982750465005,0.0,0.0,0.0,0.017900000000000003
359,-3.003170630236656,0.12424440171004296,-0.07269369291650837,4.976245531573574,-0.45286265399776926,-0.34654301094012785,0.008315119686211979,0.05216439747744282,0.0,0.0,0.0,0.01795
360,-3.0027685027959574,0.11505392940343746,-0.05572330424065669,4.724383573477161,-0.48056062698107854,-0.8042747042579614,0.0057668082878010105,0.07017645600739852,0.0,0.0,0.0,0.018000000000000002
361,-3.0540092714417337,-0.014885201522780805,-0.05146000985574022,5.203204766620515,0.5569429762952023,-0.46599774374225755,0.0034424182048868462,0.050698940533559896,0.0,0.0,0.0,0.01805
362,2.6259865470118564,0.06557197759068574,-0.04383446966166478,4.892386613900148,0.27365251224671505,-0.14200531708557435,0.0018210744536225898,0.05944250574734779,0.0,0.0,0.0,0.0181
363,-3.1110314322565467,0.0747915103139939,-0.05724949088520893,4.908335797264264,0.015082223596286505,-0.46706833471317577,-0.00750262637073803,0.04589432791511328,0.0,0.0,0.0,0.01815
364,-2.867061693508784,-0.05659640131314015,0.20322747630324287,5.039538014790446,0.7024836039697271,-0.024550748377776266,2.1774783313988988e-05,0.06018107597622297,0.0,0.0,0.0,0.0182
365,2.889254402322077,-0.06983829097859681,0.09089482397393142,4.687102699053416,0.17829567092290216,-0.3462182474095216,0.010278128350620653,0.06670564886602967,0.0,0.0,0.0,0.01825
366,3.1211952957257862,0.0449289878952601,-0.061015711914552226,5.223543808880835,-0.7554548405083733,0.19847960779638152,0.0012754051506374572,0.06564900907017607,0.0,0.0,0.0,0.018300000000000004
367,2.907966838530152,-0.018070822340294633,-0.06519329883209955,4.784739445538896,0.1543365923685,0.45317812285663883,-0.009560501912671545,0.054926070770969074,0.0,0.0,0.0,0.018349999999999998
368,-2.7350210103336168,-0.08708507785339298,0.003358818914311311,5.128918246061527,0.04064019884482195,-0.34154286809245143,-0.002937696963180704,0.07046976754840242,0.0,0.0,0.0,0.018400000000000003
369,3.0324211152546385,0.3553481645554736,-0.017481134164018527,5.066991643366925,0.3180134366498936,-0.9430151728641545,0.0018792822619516554,0.028616216294712612,0.0,0.0,0.0,0.01845
370,3.0398180274875966,0.02939766617141139,-0.02967934016840904,4.579310054815616,0.08022675469430142,0.24132402664211175,0.00911142113371988,0.048120109130176295,0.0,0.0,0.0,0.018500000000000003
371,-2.729744082829404,-0.23446221083680469,-0.05541919748428126,5.909199547671014,0.4753783481015562,0.13670612583338415,-0.00593489238974654,0.044042977970824265,0.0,0.0,0.0,0.01855
372,-3.1222182971355057,-0.08257091767968569,-0.11466881318313406,4.837295387708099,0.7929134650520873,1.2940417374601612,0.008460531392833936,0.053567157460122895,0.0,0.0,0.0,0.018600000000000002
373,3.126711929862901,0.045398513075739624,-0.08351562048006028,5.378171705761373,-0.7326437109405808,-0.478551447307046,-0.005386546054791576,0.054877477246985856,0.0,0.0,0.0,0.01865
374,-3.0173462401298368,0.5155098904668111,-0.21084715221212783,4.052203542413954,-0.255091771630237,-0.22785236790418373,-0.0028670294610163745,0.027742930087180737,0.0,0.0,0.0,0.0187
375,2.865167746019272,-0.2008070242504225,-0.28261975003296985,4.89051296673286,-0.8720111040646534,0.7213401775113534,0.003907733056062959,0.06400215375217402,0.0,0.0,0.0,0.01875
376,2.661899478576607,-0.1192937754602285,0.1007791022345504,5.007123716844668,-0.03108536322388311,0.7401813366208136,0.007317104738144131,0.05567474887474952,0.0,0.0,0.0,0.018800000000000004
377,-2.45227826097879,0.1173737635309952,0.04650084198956175,5.09341220831528,0.34527696029606825,-0.07176821244840584,-0.003107772055766523,0.04768272345911007,0.0,0.0,0.0,0.01885
378,3.0786433474695074,0.061551824278054744,0.13493956636012805,4.955628719263358,0.30760248026954573,0.00238652664658362,-0.006648076312289848,0.05646551079710012,0.0,0.0,0.0,0.018900000000000004
379,-2.8072494805125374,-0.008759443542365802,-0.06628748439183896,5.314896379263783,-0.3984175353460892,0.2358219918585281,0.003985377402380282,0.01487117885343376,0.0,0.0,0.0,0.01895
380,2.8747344201751237,-0.08561264150220677,0.24984181155792431,4.817030036755988,0.707820694890751,-0.2840071961806693,0.008680491267371557,0.05937121771581194,0.0,0.0,0.0,0.019000000000000003
381,-2.6793909062719785,0.06650270798362094,0.08911272752757277,5.033862108521178,0.5153943288229729,-0.8411062227392182,0.0039705670163685414,0.07459825505401518,0.0,0.0,0.0,0.01905
382,-2.7253336186464345,-0.01229175371735999,-0.2890963235348753,5.589606599141939,-1.4156583358420096,0.07989526439953704,-0.010795160781599387,0.05640543358037903,0.0,0.0,0.0,0.019100000000000002
383,2.9147060839376446,-0.11147020346318452,0.06558234473655801,4.308281391303007,-0.23305637892364428,0.2319868284261462,0.008079069627605845,0.042552447427044345,0.0,0.0,0.0,0.01915
384,-2.9265984086747183,-0.25714779766511153,0.10026030536490924,5.010880986530786,0.838481671820174,-0.15286797149811493,0.002070117631677569,0.04979567214925232,0.0,0.0,0.0,0.019200000000000002
385,2.884966812918687,-0.17767725857699018,0.19797691374943582,5.340713560338383,0.018995266911375652,0.5231581967896886,-0.004417320642856629,0.05888204822451439,0.0,0.0,0.0,0.01925
386,-3.060243553162626,-0.17233207601251124,-0.1294065474542912,4.6141016886082715,0.3058809266692705,0.9853663557324541,0.014293650904938218,0.035020961275408505,0.0,0.0,0.0,0.0193
387,3.006626026899323,0.20816933529100365,0.19736916733213442,4.621374701679903,0.4217762229990376,0.13630042772399031,0.012446601571175895,0.057925790684138743,0.0,0.0,0.0,0.01935
388,-3.077471871497569,-0.046888264906559736,0.1700488852345604,5.642871295698136,1.0045568093386654,0.07542602456290909,-0.008005943423666844,0.0536182878611363,0.0,0.0,0.0,0.0194
389,2.5788243754351,-0.13328955938562098,-0.10041739596181842,4.967201327500872,-0.09287856616461268,0.3884874155471603,-0.002644124361058208,0.05189261617672217,0.0,0.0,0.0,0.019450000000000002
390,3.0294936543656563,-0.17273167819677232,0.044784674308064085,4.815637834861667,-0.8693418886078812,-0.10775259292172698,0.013995449315191002,0.04659977772680071,0.0,0.0,0.0,0.0195
391,2.946362956887022,0.134840092539705,0.16111140018511808,5.506922803218534,-0.21051503702690524,-0.6409437501262294,-0.008749553505022992,0.03911868185632089,0.0,0.0,0.0,0.01955
392,-3.1153216790417764,0.015582632434630437,-0.2394718655692945,5.072037201819102,-0.07466882322309154,0.45532290245630125,-0.013542095639090658,0.04062842647666313,0.0,0.0,0.0,0.0196
393,2.2703219466566034,-0.00152590967742408,0.15250991109642748,4.928017928199824,-0.4570636777366931,0.0873205952356731,0.006136517010791591,0.038148142519191776,0.0,0.0,0.0,0.01965
394,-2.962030559247279,0.01113201594609268,-0.46853252290749414,4.991654563708513,-0.8736028510063625,0.0715609860181482,0.011475410681492944,0.040518156820212786,0.0,0.0,0.0,0.019700000000000002
395,-2.3802875917329467,0.008595429933625822,0.07038750399131134,4.657656412846332,0.3772075442626116,-0.7979930134767103,-0.019109673127001257,0.03802782641367351,0.0,0.0,0.0,0.01975
396,-2.88519656707331,0.15665378021054308,-0.07453951587625729,4.7090627559452995,-0.2875007791928082,0.8872943522195545,-0.0022951846508318685,0.0585943545704066,0.0,0.0,0.0,0.0198
397,-2.7841767514571005,0.03593014943550177,0.11145062971536565,4.64953111141064,-0.47865434927444767,0.379467376174157,-0.01895578789388901,0.057769782472081026,0.0,0.0,0.0,0.01985
398,3.100689655780018,0.11201403284646805,-0.1188442664723579,4.733202148750239,-0.7696931704897282,-0.5370088457360259,0.007339762435000013,0.04295028807102086,0.0,0.0,0.0,0.0199
399,2.861377929565906,0.054484596387185544,-0.05612445715639432,4.87041934416573,0.3412041845261725,1.0668138101226605,0.00086804236813612,0.06046566696340787,0.0,0.0,0.0,0.019950000000000002
400,-2.8179309680356797,0.25467130748730726,0.0321304435487006,4.890138041531663,-0.6547078026449963,-0.9671219949440998,-9.712510912380221e-05,0.05435799072076963,0.0,0.0,0.0,0.02
401,3.0738213899437756,0.022037605469495927,0.045784301703626906,5.081816572255543,0.2136677696122386,-0.5484450794933436,0.008072701128851006,0.05244000324994867,0.0,0.0,0.0,0.020050000000000002
402,2.224945396401227,-0.05207268435238253,-0.047161110257298494,4.809675556114493,-0.014899767216119367,0.09264499753625513,-0.00020305166633097942,0.059376369047418526,0.0,0.0,0.0,0.020100000000000003
403,-2.9715178529952766,0.051244775282165325,-0.004678106061352163,4.299718887495115,0.41539962782315065,0.13995790935312963,0.01349977259837963,0.0501542817579834,0.0,0.0,0.0,0.02015
404,-2.9252503811514803,-0.061023287378634,-0.021395475714483185,5.02403123180197,-0.11600376667026954,0.2818561204839059,0.019097323913936825,0.06124445683420981,0.0,0.0,0.0,0.020200000000000003
405,3.0728083625464926,-0.10747843489378023,0.05313132974226596,5.412830632292985,-0.016021445347537577,0.08010272267597646,-0.012410061148360511,0.03380219741198656,0.0,0.0,0.0,0.02025
406,3.0039558122380767,-0.10795370032405556,-0.0168157657093333,5.165687184619362,-0.5808867832997757,0.5954233907865474,0.006555000459445486,0.034241710295034214,0.0,0.0,0.0,0.020300000000000006
407,2.5658241653721543,0.21086075952389896,-0.26134706537251146,4.929203477459511,-0.8497539063034154,-0.9278334231591238,0.0023674377586817208,0.05167303311894428,0.0,0.0,0.0,0.02035
408,-2.852831266289462,-0.057525267232139236,-0.08752019535718866,4.830979580714664,-0.010634406445032163,0.51760844798373,0.00421142085613377,0.0481970663570699,0.0,0.0,0.0,0.0204
409,-3.068680515722724,-0.020486292495331616,-0.03289909727923757,4.932054396270252,-0.285343551688264,-0.08379000374070544,-0.012648968414862875,0.0458132714836815,0.0,0.0,0.0,0.020450000000000003
410,-2.9922856657506425,0.25251385552550015,-0.22653398377181858,4.9389933346052395,-0.27331662748943375,-0.25383347910378007,0.008046273193618817,0.05865783734002422,0.0,0.0,0.0,0.020499999999999997
411,2.782800185580597,-0.031423665754864646,0.11342573462804739,4.759093944972191,0.7182960629171136,0.01722707762507894,-0.00963465184793465,0.05268844188175726,0.0,0.0,0.0,0.020550000000000002
412,-2.6547438591096113,0.0746347537685867,0.35962652115484894,5.13959258887044,0.574379150148205,-1.36022350790994,0.002019197783485762,0.05861748815220172,0.0,0.0,0.0,0.0206
413,-2.871387660723437,-0.06741618796422236,0.25720260167617975,5.253317539403066,1.4688562769555722,-0.36554031151879607,0.013161973647306034,0.05684129368252526,0.0,0.0,0.0,0.02065
414,2.875456133975326,0.12715602292524067,-0.10411207408726872,4.966058590546292,-0.5740843690537327,0.32043231478824064,0.0011212092807388109,0.03905634158992988,0.0,0.0,0.0,0.0207
415,3.0359399972580254,-0.1859153591846394,-0.16482163897452085,5.174541683802592,-1.027335500947994,0.20241250241963638,-0.0031043396971774727,0.032668824730700485,0.0,0.0,0.0,0.02075
416,2.959023486564088,0.09338936736082736,-0.18897678274354962,4.950556151271078,-0.35113603336239585,0.03497372625942883,-0.0004660598761984363,0.04747968892937483,0.0,0.0,0.0,0.020800000000000003
417,-2.498422512078862,-0.10852430100693354,0.03575593784674123,5.5054972127080966,-0.3731407554248972,-0.4141421881296695,-0.0005441367949857161,0.06312830044072905,0.0,0.0,0.0,0.02085
418,-2.882968725767091,-0.1385070312355525,-0.17909556669412244,4.9810539654673605,-0.3571268784457826,0.196639170510648,0.012476505408465587,0.041461516524943336,0.0,0.0,0.0,0.0209
419,-2.890157949405394,-0.048727317981489465,0.02815939701185897,5.061260403563721,0.10028445459748718,-0.13487231727971577,0.005855454448767273,0.04102440905571353,0.0,0.0,0.0,0.020950000000000003
420,-3.0569585070497283,-0.1787526981920822,0.055607986675377315,4.59947030269668,1.4354922812053652,0.39620051093824643,-0.004493113588987892,0.06253149210744506,0.0,0.0,0.0,0.021
421,2.9581618574477413,0.23544737137559982,-0.005674828859959374,5.0460484882299665,-0.8872407317411914,-1.1125967293652828,-0.00756058895865595,0.055495486014443464,0.0,0.0,0.0,0.021050000000000003
422,2.95700051770289,0.07639502905040217,0.04137789577291685,5.093326758271977,-0.7276301105561611,0.05066290417740174,-0.00417134641610162,0.041420123320318115,0.0,0.0,0.0,0.0211
423,-2.742189736692265,0.24755248231726573,0.04678426430284828,5.107581819101038,0.1475698257331743,-1.077005799869875,-0.009912989230631733,0.07521421777375041,0.0,0.0,0.0,0.021150000000000002
424,3.0144309366738393,-0.2388282507380341,0.009650934640677494,4.903421223453699,-0.12136596478388545,0.37840630538197984,-0.015259325316019092,0.04989208584981415,0.0,0.0,0.0,0.021200000000000004
425,-3.081267828387515,-0.27336831597536565,0.019958524996489122,5.007526431937924,1.0243542718535938,0.22822426462231216,0.007604178553353822,0.0429065081281848,0.0,0.0,0.0,0.02125
426,3.038643779747676,0.04180298736619704,-0.05055943975179292,5.126503231140469,0.07994084441738306,-0.35639289848484995,-0.003252023454042119,0.04621334418547389,0.0,0.0,0.0,0.0213
427,2.8483980327961644,0.11730022222641044,-0.04309788569828423,4.517197267029785,-0.1751741922440905,-0.7270362223070747,0.0049027884068726215,0.04647745732335178,0.0,0.0,0.0,0.02135
428,2.597429986638517,-0.05586418721369892,0.13246236824671076,4.489413902342934,-0.5642562226624327,0.06927088139298292,-0.0018183942106951114,0.045132008782430476,0.0,0.0,0.0,0.021400000000000002
429,3.0394620511217796,0.18946935470110932,-0.19557377090469932,5.297965258883819,0.08829472437876318,-0.45392845806345655,0.0125085737748867,0.07030287597880991,0.0,0.0,0.0,0.021450000000000004
430,-2.565690531538097,-0.17526596473134715,0.25165365851486693,5.070401002919762,0.4250877653443095,0.46853993974552155,-0.0003910859399249573,0.0521228048390528,0.0,0.0,0.0,0.0215
431,3.1158337679320587,-0.10371604848058971,-0.2019616837778258,4.9751251605841675,-0.7580902912821652,0.48305003184048534,0.005005809643932915,0.04088925153837654,0.0,0.0,0.0,0.021550000000000003
432,-3.011625482316236,-0.02101933294065689,0.21039281994134382,4.3933268137672075,0.6352011153923254,-1.8202630879640895,0.015012588604114193,0.04356534100749147,0.0,0.0,0.0,0.0216
433,2.5718111982062344,-0.2180253843666569,-0.18694766852961314,4.539528539189132,-1.0604055768366405,1.1379190890558135,0.0025414912500040516,0.05492366704058685,0.0,0.0,0.0,0.021650000000000003
434,2.623824512215471,0.08312152511734022,0.17350926579661352,5.362009570899392,0.6151452073378094,0.2108636365626193,-0.006652291233148718,0.06578201131934595,0.0,0.0,0.0,0.0217
435,-2.8803003977931003,-0.09326761364473683,0.016075559008656735,4.827602232437298,0.38079137799090707,0.5021862774244186,0.008927883311003405,0.03066410077033316,0.0,0.0,0.0,0.021750000000000002
436,2.7594145820478584,0.05323121925005442,-0.13141810466206083,4.671199018600056,0.7262307644972208,0.018925666304572097,-0.00167765793495177,0.06423274332122303,0.0,0.0,0.0,0.021800000000000003
437,-2.995558255981536,-0.07411988501400898,0.15217080707942884,4.885187594417503,0.3756321489017994,-0.22511467147178138,-0.011511127532714742,0.03681705549728206,0.0,0.0,0.0,0.02185
438,-2.890163035344988,0.10441825602473281,-0.45966213247840765,4.993632124094247,-1.7144787572552056,-0.018256981630929592,0.004147767102579988,0.05534371285928741,0.0,0.0,0.0,0.0219
439,-3.128658323093804,-0.057471013615477795,-0.15577201395186924,5.071539660235937,-0.007474437096223807,0.6175926419982988,-0.012530273175466473,0.055191487562766844,0.0,0.0,0.0,0.02195
440,3.1217130558845523,0.08927228646359725,0.26434607320979003,4.850946171678077,0.2322072317076529,0.615872323006479,-0.003739022208273803,0.05903644722978111,0.0,0.0,0.0,0.022000000000000002
441,-2.9903426075727015,-0.11950398414076802,-0.21549427124345266,4.606294996755967,-0.7650128641976114,0.049102485192718856,-0.013316632259428047,0.04126545299115841,0.0,0.0,0.0,0.022050000000000004
442,-2.8923327033927873,0.14867304161947517,0.07562631332708625,5.050711947472114,0.8726652299097926,0.06317447517049507,0.01941417166194052,0.06321889013224334,0.0,0.0,0.0,0.0221
443,-2.797052952259332,-0.15309027611596696,0.31261154713791955,4.661751229853384,0.994921795845244,0.30366207668673306,0.0014561856993074562,0.03181995245215821,0.0,0.0,0.0,0.02215
444,-3.0608181885734442,-0.025560943194532063,-0.08295318175710988,5.104693175400451,-0.31336810933126014,0.6041222624276918,-0.011070132107411522,0.06051223800838504,0.0,0.0,0.0,0.022200000000000004
445,-3.0108256108698352,0.06471738635332666,-0.08626223023109772,5.177784045364548,-0.5584144468323297,0.044230507288127274,-0.009771030933333556,0.046123945026518745,0.0,0.0,0.0,0.022250000000000002
446,-2.9311697640062087,0.05843965186514263,-0.22573235549520415,4.980228169447978,-0.1732587920960822,0.07800089321091153,-0.012184432454688192,0.06361249893177573,0.0,0.0,0.0,0.0223
447,-3.0786225524211086,0.01978346187647077,0.06490579913548211,5.24351617911604,0.9249228515197774,-0.49454391777781986,-0.00889835382171623,0.04109025251997099,0.0,0.0,0.0,0.022350000000000002
448,-2.617453840402669,-0.3109954779654895,-0.16412781017135655,5.238119099639853,-0.5477277329021836,1.0489238380882648,0.0036555621827128537,0.0598466900390208,0.0,0.0,0.0,0.022400000000000003
449,3.1273599831204186,-0.03997320921747531,-0.06676995334579254,4.643606027674907,-0.13373355460274305,0.018909816758138603,0.0017104412469652625,0.04149093092685622,0.0,0.0,0.0,0.022450000000000005
450,2.962305661640672,0.05118073897078016,0.08892329501379523,5.1480540705455775,-0.23471524171228822,0.46053114373483817,0.0010999110846103915,0.05840144592291144,0.0,0.0,0.0,0.0225
451,3.060641275894076,-0.01936706784201204,-0.2954927572987724,4.781817191193777,-0.9595247046462023,0.12012490285168193,0.009602609609942553,0.03788359377470654,0.0,0.0,0.0,0.02255
452,2.701776932951262,-0.15002016920377734,0.05265853322787187,4.860870409397345,-0.16300773632986704,0.6820411256755188,0.008178984874697509,0.039766992237534084,0.0,0.0,0.0,0.022600000000000002
453,2.7089822389349134,0.173858581819112,-0.3028361270448579,5.19362483984578,-0.4753993600091826,-0.8368228157959993,0.01047217423251137,0.08050321484001917,0.0,0.0,0.0,0.022650000000000003
454,-2.742797993130206,0.1713633872165193,0.052632253523058885,5.179362365293136,0.16568592023619444,-0.4062353753137948,-0.006727317742284669,0.04949508038143284,0.0,0.0,0.0,0.0227
455,-2.25779625932419,-0.022708509397634007,-0.11282295035766601,4.869085425785781,-0.041269789888733976,0.49581638267627837,0.0043359992867681805,0.06567255688762405,0.0,0.0,0.0,0.02275
456,-3.025974505094673,0.15590097017799925,-0.42913688352182394,4.815361377327619,-1.1043248168774085,0.11543045301680432,-0.013525354891814851,0.0549077651344433,0.0,0.0,0.0,0.022800000000000004
457,3.0633915531505225,0.2599188043385181,0.04280611175291048,5.228442501066227,0.2786686828392767,-1.1250280913632658,0.002393048629801848,0.04333321126391746,0.0,0.0,0.0,0.022850000000000002
458,-2.6354328676452363,-0.10918506235618422,0.14523878387832442,5.024965126132187,1.4021378300018223,-0.3729288343284922,0.014316237576770217,0.059182818964235294,0.0,0.0,0.0,0.0229
459,2.5086531424144374,-0.05445250848644391,0.04737019238837892,5.615958966640898,-0.3684660249772555,-0.5728693834769665,-0.0015787578184769855,0.045256324179954906,0.0,0.0,0.0,0.02295
460,-3.0643176709877236,-0.11056293692223189,0.08399658828494758,4.6591200186513095,0.36753749188942003,-0.6398150208693173,-0.007034059902314279,0.04930545437297128,0.0,0.0,0.0,0.023000000000000003
461,3.1110591928470455,0.04789834632591532,0.20249670832018554,4.390715239052395,-0.27188542467133914,0.4930598771105882,-0.0035939771498648683,0.04817753101322616,0.0,0.0,0.0,0.023050000000000005
462,-3.01334380038579,0.16773857161989972,-0.2342141051696651,4.813080975209988,-1.1266535367770445,-0.45896471217425694,0.0006055611174071566,0.05189990659131835,0.0,0.0,0.0,0.023100000000000002
463,-3.0524650559815187,-0.12267845386258354,-0.16052394357327004,4.555511818276343,0.014564531004867542,1.0546560656724073,0.005139776108730838,0.056120526892602746,0.0,0.0,0.0,0.02315
464,2.975825574490969,0.07367214502900993,0.11650804567000521,4.888552353702411,-0.36237823094215443,-0.16607130795095676,-0.004348408683212603,0.04302831387595164,0.0,0.0,0.0,0.0232
465,3.1075891225778247,-0.19232204228447541,0.0727517766053827,4.968724107094303,-0.2930989954996905,1.0420195293899377,-0.0005731813822738136,0.05008912170109325,0.0,0.0,0.0,0.023250000000000003
466,2.5228237626774543,0.018161647032657484,-0.026299034725468216,5.6277887488570135,-0.3971781954797797,0.20516039474315817,-0.003063135187738922,0.051372099656227355,0.0,0.0,0.0,0.0233
467,2.871249241515649,-0.038781706683456554,0.05592889487635958,4.529853190968912,0.7494076322631652,-0.20166710834566445,-0.003601645048085139,0.045557445658496884,0.0,0.0,0.0,0.023350000000000003
468,3.134211225647435,-0.11359244141931664,-0.0865571480913958,4.633262256094931,0.3746820296498898,0.6226420069305019,-0.004447040509839206,0.038871003049757366,0.0,0.0,0.0,0.023399999999999997
469,-2.8703641311004517,-0.16385844107335115,0.10671996386638638,5.410507593015,0.42667436351360905,0.8197619977731198,-0.01435717993010334,0.03564684920336458,0.0,0.0,0.0,0.023450000000000006
470,3.131707629480692,0.12415277730944972,-0.14031457813879883,5.513225808180898,0.0821984169792006,-0.19850086778744805,-0.0015657137311193888,0.06105082469283228,0.0,0.0,0.0,0.0235
471,-2.6591913060981627,-0.2664368909760733,0.06300628335138696,4.750217971937046,1.066405888418188,0.8932520335280856,-0.020906149608338077,0.03454115820057125,0.0,0.0,0.0,0.02355
472,-3.0622572833026878,-0.04131922815160286,-0.09987994545615266,4.723747292433046,0.02966379749150505,-0.006207797312386278,-0.003172456013231304,0.044915848208983894,0.0,0.0,0.0,0.0236
473,3.0774103177343006,-0.01813491257372119,0.029268968344054076,5.042455467965165,-0.3690504515916214,-0.36144851032056613,0.0062849155596012155,0.053077112217063474,0.0,0.0,0.0,0.023650000000000004
474,-3.0976857561797178,-0.05757404623623663,0.08835904350745735,5.1215018407138775,-0.041090944891592096,0.13387992239656393,-0.015792505017551882,0.05326567021145815,0.0,0.0,0.0,0.023700000000000002
475,-2.603351050052635,0.11840964402038412,0.07214981841634983,5.371995549857552,0.15019725738446327,-0.18867644385498014,0.0022234790111548474,0.05255654377529674,0.0,0.0,0.0,0.02375
476,-2.8715572777699783,-0.14124822784120536,0.040645895309543024,3.9570612557380502,0.40886207732655794,-0.520577065542069,0.0062638464637239785,0.06854782779973578,0.0,0.0,0.0,0.023799999999999998
477,-2.7575221044414313,-0.031340205081994844,-0.011550230737045744,5.371245185278056,0.07722964664700538,-0.04087827616991174,0.01212743195449337,0.055605523985226314,0.0,0.0,0.0,0.023850000000000003
478,3.0540134444523233,-0.126244108089658,0.09022652955696271,4.9719412989543335,0.194716023385755,-0.1148049542391554,-0.011989315204550799,0.040375263400009936,0.0,0.0,0.0,0.0239
479,2.955693656543052,0.3153395067581761,-0.016732700073552164,5.114940984732202,0.04213026459626518,-1.5200911630968585,-0.0019284228211534952,0.05580763918533036,0.0,0.0,0.0,0.023950000000000003
480,2.9127220179354874,0.0047115622793237385,0.021802086931991184,4.88247283248877,0.251813867398072,-0.42054805646378235,0.00487394940251662,0.05533292697475109,0.0,0.0,0.0,0.024
481,-2.6746974391791296,0.2084136274860339,0.03298404423512671,5.205684881938555,-0.9592373161298218,-0.8323828232620439,0.011867772993500877,0.047586524214415206,0.0,0.0,0.0,0.024050000000000005
482,-3.0368734837208446,-0.021035419638586947,0.11755787139645166,5.359314625686677,1.0613343808072726,0.4018787285969645,-0.012322545807498538,0.056527153969552144,0.0,0.0,0.0,0.024100000000000003
483,2.884567364051949,-0.13212667021985006,0.10734472923596261,4.745866951917694,-0.2666521419063687,0.6869349111600835,0.003406034923020079,0.04928604545803872,0.0,0.0,0.0,0.02415
484,-3.059384195197805,0.0059031477483665416,0.1399781314980647,5.138078298390721,-0.27482289056208203,-0.43448457059057893,0.0013401361977010014,0.03771269522983793,0.0,0.0,0.0,0.0242
485,-2.812974593596302,-0.05071625035357627,-0.13248711476808578,4.994193572350512,-0.2000213310139637,-0.2670353985407811,0.0019189348469422327,0.0499800467152813,0.0,0.0,0.0,0.024250000000000004
486,2.947104122505939,0.06562150711129006,-0.07972765017175583,5.1076433815234505,-0.15942981754810953,-0.2296364450479395,0.0019774302252864332,0.03207588793028143,0.0,0.0,0.0,0.024300000000000002
487,2.9337985906299955,-0.2881011178066277,0.11890503319501708,4.972795579255436,0.2650851879457504,1.1890639098980373,0.00514998503692335,0.045111727353690775,0.0,0.0,0.0,0.024350000000000004
488,2.851846835918872,0.031186012262095004,0.08090534381472217,5.341106786507355,0.005893659327971951,0.8455439871749769,-0.003911629425651595,0.045984279784825464,0.0,0.0,0.0,0.024399999999999998
489,-2.913077230190857,-0.1438369712528867,0.051284000117389525,4.839516369760755,0.1261926056342185,0.2763579146919947,0.0057362077554011,0.04591668564711878,0.0,0.0,0.0,0.02445
490,3.1039864273277313,0.08748110994084263,0.05174877437942419,4.52358494246528,1.0240041718150845,-0.626805693525465,0.0032284181445658387,0.05321709836123609,0.0,0.0,0.0,0.0245
491,2.6977040679264324,0.028010559866365702,-0.3750534380693003,5.1552542792594895,-0.8154622942084662,-0.24653023621040243,0.005503034737790281,0.05796275126562839,0.0,0.0,0.0,0.024550000000000002
492,-2.8739103870312475,-0.012138010022792205,0.06416455258115862,5.547050729332354,-0.09161345929994873,-0.7366269702443974,-0.009147355263861569,0.03683492899293218,0.0,0.0,0.0,0.0246
493,-2.7283363749876757,0.07534514634184265,-0.03455294624840409,4.816930590130026,-0.090265451474953,-0.42909178090650807,-0.00397533136802766,0.039097974932218615,0.0,0.0,0.0,0.02465
494,2.855250405974899,0.03188737883854109,-0.0987349026803203,4.689728835889849,0.49469570852424083,0.03873872099492932,-0.00870449830357424,0.05893728161647859,0.0,0.0,0.0,0.024700000000000003
495,2.9456803279788693,0.08969481560363107,0.1096165564007345,4.504663110807148,0.0073559004785839766,0.03235911967685223,-0.02705413340248746,0.05246498418948111,0.0,0.0,0.0,0.02475
496,2.928426631491954,-0.09773040663986951,0.17476446746719654,5.098362407208599,-0.6173759186276393,0.5060275141584601,0.0025884199075374517,0.05684300127449988,0.0,0.0,0.0,0.0248
497,-2.8588454764121867,-0.02633108196590028,0.014159322231179326,4.68470020572047,0.5358226051059412,0.6452058807507349,0.0016926669300655287,0.05341753009432391,0.0,0.0,0.0,0.02485
498,2.683015812962875,0.1149759384896796,0.016870785908710755,5.104751705187811,-0.21486860985389405,0.1407644255189781,0.0011212417390926883,0.0711609150792541,0.0,0.0,0.0,0.024900000000000002
499,-3.0600753249697257,0.0056131351302216494,0.07958539171731249,4.574981408008729,0.8774718456068125,-1.0035215005254146,-0.005955534056092999,0.050699859468851236,0.0,0.0,0.0,0.024950000000000003
500,-2.9979031960693097,-0.16405567336137747,-0.007092894634015573,5.238645777562353,0.3136750931281681,1.0489219177999647,-0.013364431256253185,0.05533344691205118,0.0,0.0,0.0,0.025
501,-3.1027202588523624,-0.23183054575343343,0.0029697104162757786,5.32662733621851,0.053756881719025484,0.44130382253332145,-0.006053610311031396,0.03445180173983732,0.0,0.0,0.0,0.02505
502,-2.9257070179303386,0.03897005621242397,0.16710740804183907,4.873489524922813,0.7559464894784229,-0.43866787880964453,-0.007997048004081521,0.052694485605348375,0.0,0.0,0.0,0.025100000000000004
503,2.941000892874029,-0.032132724509615955,0.12991265189396956,5.04203531741604,-0.17368416922834498,-0.21552009739286315,0.006069140708183902,0.03082025307772895,0.0,0.0,0.0,0.02515
504,2.440333936084227,-0.0781454351045977,-0.17029669285986643,5.1726023013216285,-1.0912921399265323,-0.3019567971593301,0.003904593423145092,0.042483591465685616,0.0,0.0,0.0,0.0252
505,-3.087815604721619,0.028145592082152844,0.41328798610563877,4.704852566512467,1.0786257961641321,-1.060499078250705,-0.0022904062614845476,0.04634234702127032,0.0,0.0,0.0,0.02525
506,-2.916014956342318,0.28815264258943174,0.14601636548524946,4.685986665131863,0.21000071988250768,-0.8524257272320264,-0.008561306698910413,0.046407297461920474,0.0,0.0,0.0,0.025300000000000007
507,2.785265054268927,-0.00031877283794929447,0.11219844239306434,4.940959152559762,0.5550978057649907,0.16295910723180826,-0.016076207568903548,0.050596202310898855,0.0,0.0,0.0,0.02535
508,2.836420767788265,-0.0415421817982316,-0.12060820899179425,5.312855517712217,-0.609713973236645,0.2300098082956732,-0.009400962846042632,0.04000547499262504,0.0,0.0,0.0,0.0254
509,3.0465922696902936,0.2720864423444493,0.09819662516796328,5.195188843471251,0.5730729354499023,-0.14749281388851043,-0.007482649033036485,0.04379603722201394,0.0,0.0,0.0,0.02545
510,-3.113938996278437,0.08863091457184698,-0.1124178522630563,5.000780879779757,-0.41752821701373877,0.48444695931714604,0.007094664742496934,0.04722009276572885,0.0,0.0,0.0,0.025500000000000005
511,-2.846574555557258,-0.18148716864104036,-0.11930332047573378,5.312878994611269,0.4196195181914282,0.7395622428561894,0.0021708149671161607,0.04806402624476811,0.0,0.0,0.0,0.02555
512,2.6465046704672694,-0.30026631819219274,-0.11365164739779016,5.084255951924344,-1.044044282960094,0.7268092867683722,-0.008628415069739562,0.036705520357766606,0.0,0.0,0.0,0.0256
513,-3.1063434639202057,-0.03602384607635618,0.1645182029379424,4.85183078326792,0.7971576133263886,-0.4928989168572448,-0.003530537889924756,0.05195525763944814,0.0,0.0,0.0,0.02565
514,2.895652260428455,-0.10023694587306904,0.13245954203203789,5.392595554042545,-0.15437138089701963,0.04630862730213392,0.00804957823292519,0.04231253553638027,0.0,0.0,0.0,0.0257
515,2.8840775186511953,0.15920693804666325,0.027819159344113845,4.97226476843749,0.2060317762973604,-0.7121187455116049,0.0028847019176871033,0.0469728296259992,0.0,0.0,0.0,0.025750000000000002
516,2.8837952818886454,-0.0806361332481195,0.05622722466233911,5.38784925362168,-0.4171266143543265,-0.23912210851688742,-0.0010893004814433987,0.05168540038455054,0.0,0.0,0.0,0.0258
517,-2.781352776196092,-0.21478119123757153,-0.14666010372774727,5.077494571117014,0.13762652993657132,0.332446515347668,0.004016398240192072,0.07010404025699438,0.0,0.0,0.0,0.02585
518,3.0677134119520955,-0.016733660223153205,-0.08775045705023922,5.252353310354044,-0.15447298024402004,0.2521367948835403,-0.0026287253045492167,0.06692549497110642,0.0,0.0,0.0,0.0259
519,-3.010732527750002,-0.0017230935270910871,-0.2433630675247495,4.856335286915055,-0.5393966876544186,-0.2834727282790254,-0.006983394419855474,0.062435850402201384,0.0,0.0,0.0,0.02595
520,3.0741449714445523,0.10885593252439027,0.1470291590656336,4.8349962457191875,1.0619710378005836,-0.379290335505627,-0.0213992333661589,0.06715563343589986,0.0,0.0,0.0,0.026000000000000002
521,-2.875152004447105,0.0018758600161270195,-0.10135100646933429,4.856833776067032,0.1538931338813166,0.27971630680081927,-0.01835336448652585,0.05101067537784247,0.0,0.0,0.0,0.02605
522,2.7074490753984284,0.1259050304157287,0.008287242358235738,5.148476407965332,-0.49434433843193926,-0.5486436952356291,0.019023931001925898,0.05334892932429477,0.0,0.0,0.0,0.0261
523,3.075548190234562,0.043802455974911336,-0.0494865237813902,4.730539385539516,0.05210409381922537,-0.17071841747404554,0.008744618418122489,0.0466924669754477,0.0,0.0,0.0,0.02615
524,-3.0043504585933243,-0.02178498503245549,0.2676593172200602,4.407965043661095,1.0845141173355903,-0.09069411632908081,-0.003611268197943903,0.04802475868363926,0.0,0.0,0.0,0.0262
525,2.8070025129059286,0.15321456190447158,-0.08117671080772922,4.584450725247333,-0.007286818940671569,-0.7718271642340846,0.0017106717896057206,0.04252462469543813,0.0,0.0,0.0,0.026250000000000002
526,3.0780429807282754,0.026420816741691784,-0.03336510187392685,4.564275486796698,-0.2591399350559659,-0.281573563417766,-0.004617827198412565,0.045856688522196536,0.0,0.0,0.0,0.0263
527,-3.023172332853225,0.0014357057039435506,-0.07154164017860835,5.22983907991379,0.20691161933854146,0.377692391126486,-0.0023484097052118074,0.04568802109588124,0.0,0.0,0.0,0.026350000000000002
528,-3.03925701060712,-0.07448291152418193,-0.18961176369698596,4.716030158263319,-0.2756516372077761,0.26030717983317553,-0.01183683017320437,0.05611229764166153,0.0,0.0,0.0,0.0264
529,2.870997754555498,0.12624678488869917,0.16185185152530884,4.472200890595493,0.0909205912056529,-0.04096870059621105,0.019695697725075248,0.057995250814576176,0.0,0.0,0.0,0.02645
530,3.0923021928631393,-0.026246594694589873,0.29706640808236706,4.896837302153854,0.25731870287166914,-0.9331308130949211,0.008074100459107477,0.05371875998507901,0.0,0.0,0.0,0.026500000000000003
531,2.912136284576273,0.10806869152493735,-0.13935736006481908,5.609744869841219,-0.9791522690331603,-0.5769450368659291,-0.011177929498425459,0.047411737055987266,0.0,0.0,0.0,0.02655
532,2.741172256883125,0.05349621304492881,-0.15482962749927834,5.035069647444136,-1.0707100810966985,-0.43930912049780757,-0.006560523584940569,0.030958763343530548,0.0,0.0,0.0,0.026600000000000002
533,2.9977468252509163,0.2457221905401041,-0.2702520504832593,4.932937036619717,0.07620289878483788,-1.2079428943512602,-0.014678862313593156,0.04040781840752019,0.0,0.0,0.0,0.02665
534,-3.1071766723944276,-0.09049416392082019,-0.05247325394680599,4.478838845534989,2.0878444643697334,-0.029393178809171916,-0.018012180197458885,0.05568000302868242,0.0,0.0,0.0,0.0267
535,-2.7473047033480023,-0.08629660982481467,0.07490887303933062,4.9514367438355515,0.6322689257905673,0.8451861346940472,-0.005600073316068063,0.03116552947900787,0.0,0.0,0.0,0.026750000000000003
536,2.9374097375506447,0.31526286980608936,-0.13198431207444705,4.640897001683273,0.47684596006850716,-1.0043399938318944,-0.0025141735932383592,0.06310342829066787,0.0,0.0,0.0,0.0268
537,-3.0313585189783607,-0.2217766381626854,-0.2012900382892846,4.950117971554518,0.6772033655241083,0.568821773689039,-0.012490494961604627,0.05895758483228604,0.0,0.0,0.0,0.026850000000000002
538,-2.986419472278885,-0.1179768999583797,0.00932715090555518,5.529612041421447,-0.1209318981500854,0.17585064985731158,0.011301684220182125,0.03103225360650727,0.0,0.0,0.0,0.0269
539,2.9606015922631284,-0.07606292420097324,-0.19815506546555856,5.25129337579663,-0.48901404776521634,0.009463195569718419,0.005762156401242642,0.056120800937146914,0.0,0.0,0.0,0.02695
540,-3.125357083975636,-0.025861986014839054,-0.10873465152342027,4.671572685626989,0.24698681020528773,-0.04422823214566633,-0.005414539331354005,0.06640261979072955,0.0,0.0,0.0,0.027000000000000003
541,2.21190447837269,0.10776684211835312,-0.09223296879482508,4.625314940899402,-0.7617604507873105,-0.45967479720203214,-0.007970380863487779,0.04608666306580053,0.0,0.0,0.0,0.02705
542,-2.9261368839132142,-0.059618147031896426,0.07241756169451082,4.784838722878703,0.282241281254426,-1.014658652569908,-0.0010591892995363214,0.06261930128391477,0.0,0.0,0.0,0.027100000000000003
543,2.8680124435277,0.12355502342312077,0.16778467054763416,4.767025671585899,0.18874067493991353,-0.2909782099935214,-0.007631924260892339,0.049786531882402764,0.0,0.0,0.0,0.02715
544,2.9711285729250685,0.019502598804093385,0.12943097895768804,4.873322459703887,0.25242885223455225,0.7877539600859091,-0.003782816913994365,0.04496340341843635,0.0,0.0,0.0,0.027200000000000002
545,-2.7740405109866613,0.16007021413172395,-0.23196523049822584,4.9173145959574684,0.3332977052557891,0.4401741269204487,-0.006640948991685159,0.05178239750331442,0.0,0.0,0.0,0.027250000000000003
546,-3.04503771810182,0.05780464283443289,0.07846216295448664,4.857127168321712,0.5036147408907623,-0.8127162530413423,-0.006492722116461285,0.06418562121166888,0.0,0.0,0.0,0.0273
547,3.0204411892021916,0.13505319637957258,0.1333014020187443,5.320996611662358,-0.1366713165270626,-0.44085031341632663,0.002494706619889631,0.04400072789137578,0.0,0.0,0.0,0.027350000000000003
548,-3.09541518796102,0.01133118298436536,0.016636766644065347,5.181721065077426,0.41523722680011727,0.3808484279090846,-0.0009132707579854325,0.04528230627236211,0.0,0.0,0.0,0.0274
549,2.7667991302234465,0.001531794564639048,-0.054014866292435605,4.878551658979765,-0.22815263913025932,0.19303606708607296,0.007983535487169421,0.04179349952411793,0.0,0.0,0.0,0.027450000000000002
550,2.8653162124366145,-0.04197959660885526,-0.12325205143112657,4.752732310927752,-0.7559950021206284,-0.7430039087804701,0.00896098177545879,0.052587166355305116,0.0,0.0,0.0,0.027500000000000004
551,3.099355755706495,-0.09386629577418446,0.0522151426198679,4.485904649839539,-1.2073890482305853,0.17740954567558068,-0.015673398257896556,0.04426277196627582,0.0,0.0,0.0,0.02755
552,3.0529792320395654,0.011917024402068162,0.05951369315220437,5.207775310696784,0.0015858379764877861,0.19371584025257876,0.007605121991049549,0.05573632978894171,0.0,0.0,0.0,0.027600000000000003
553,-2.7956256055550024,-0.1400811978685328,0.0350906559257503,5.069159008001083,-0.13406337637006668,-0.2524387656098356,-0.0070316725393839725,0.041327665546099346,0.0,0.0,0.0,0.02765
554,2.7856162293297406,-0.19430010052537366,-0.11344214051768473,5.463898826950022,-1.01825184227862,0.2999579792507737,-0.014990799142707952,0.053732046254410394,0.0,0.0,0.0,0.027700000000000002
555,3.1106865329226303,0.08756814667507329,-0.0788957563304507,4.523550175103658,-0.45556388620750143,-0.17318517090381128,3.0431266650940945e-06,0.03864422199728717,0.0,0.0,0.0,0.027750000000000004
556,3.0034789207800427,0.14448825343692748,-0.3259695460321774,4.832683168694689,-0.7214656989133315,-0.4328471909021279,-0.0074585217621984095,0.06340625814955597,0.0,0.0,0.0,0.027800000000000002
557,-2.363821037096426,0.2932035853305841,-0.02994779000124188,4.94597864280293,-0.4463242683865069,-1.1116993780898274,-0.007009583202205457,0.07971680922005557,0.0,0.0,0.0,0.027850000000000003
558,-2.9400734270985063,-0.13464711341287364,-0.16523037298672505,4.832990192245367,0.9340606806730993,0.7429239478878374,-0.00517997169017482,0.06195043260336302,0.0,0.0,0.0,0.0279
559,-2.907956538470724,-0.2528045345231224,0.09095755383077515,5.069262808395611,0.12912106419275377,1.081957638669602,-0.011443146591029605,0.045527608671140356,0.0,0.0,0.0,0.027950000000000003
560,2.9048254773988784,0.09062688735940647,-0.12152111970979217,4.522728192463178,-0.20951670682456958,-0.01633791772691836,0.0011412901285157316,0.04977832573787591,0.0,0.0,0.0,0.028000000000000004
561,-2.9424336410332317,-0.16891961591075896,-0.09185787144413035,5.000546384826656,0.5044250051672725,1.0345732928200722,-0.009194647989749949,0.061332748216393104,0.0,0.0,0.0,0.028050000000000002
562,2.8197538462636844,-0.10763791186492377,0.0451080227089231,5.3725153370260195,0.09347873967028836,0.26965179142043205,-0.01531380058101586,0.045616848591553155,0.0,0.0,0.0,0.028100000000000003
563,2.8592122472375596,0.14976647811338306,-0.2514702762823426,4.669927137590716,-0.7059005789098576,0.2772770493343272,0.0015060461619851506,0.058901073123980345,0.0,0.0,0.0,0.02815
564,-2.895607959290939,-0.027336848935819162,0.0028868241068891803,4.809931922110897,0.7372691534311155,-0.5362256651340671,-0.005560911300695274,0.05659155340911689,0.0,0.0,0.0,0.028199999999999996
565,3.1173458209961797,0.03302006037685521,-0.13071114598432265,5.546404221201922,-1.098109650998027,-0.8759649361289531,-0.009683126146226736,0.05005660999376456,0.0,0.0,0.0,0.028250000000000004
566,-2.711598503806622,-0.0337477259621643,-0.07122452405199722,4.654965956493866,-0.26720218632277637,-0.10126643723424046,0.002977763180308053,0.019133613182597962,0.0,0.0,0.0,0.028300000000000002
567,-3.0676195577808643,0.219465903750579,0.14345871386782713,4.841118589948757,-0.3416106931928488,-0.2676248951554959,-0.005453473545208285,0.05486375966715544,0.0,0.0,0.0,0.028350000000000004
568,3.037663694556684,0.05181020609851873,0.2674825541322745,4.626653033110196,0.5798268942542735,0.6187264422238892,-0.009183047842145572,0.04664325616860567,0.0,0.0,0.0,0.028399999999999998
569,3.0271813276554784,-0.057157410417168694,-0.2674190314535786,4.679904348388591,-1.1231270043701618,-0.4926702044315583,0.005308355799987466,0.03943303601153346,0.0,0.0,0.0,0.028450000000000003
570,-2.9658068194915517,0.08604989033403923,-0.07077446492084184,5.346958981544277,0.3848495647328652,1.1259581143639446,-0.0035240277593739065,0.04550718838345889,0.0,0.0,0.0,0.028500000000000004
571,-2.5504244623891648,-0.12695533938747056,0.06644213037978032,5.239569071886983,-0.13899648012120197,0.087633515022296,-0.01562599123602566,0.05320175245835636,0.0,0.0,0.0,0.028550000000000002
572,-3.0261807999456694,0.2475194267738252,0.299923427893447,4.256001158109496,-0.4740490256239123,-1.4815368782169758,-0.0038181418375797874,0.06028182168776474,0.0,0.0,0.0,0.028599999999999997
573,2.966573358570983,0.12868471290103198,-0.04537548262453389,4.794823294746805,0.4494640259633777,-0.6039247574484252,-0.021438293348477206,0.04643620417175742,0.0,0.0,0.0,0.028650000000000002
574,2.816104535500801,0.2334705039807735,-0.07138931577426029,4.639839668554672,-0.46731454132078465,-1.4045471703677967,-0.01921280047767198,0.03579337101072208,0.0,0.0,0.0,0.028700000000000003
575,-2.8389595489795494,0.04470221176490665,0.1368551485889045,5.084531443268439,-0.33729019796535353,-0.42607038281322107,-0.007820886552469085,0.03928272328444506,0.0,0.0,0.0,0.028750000000000005
576,2.640731143418948,-0.02174012842951213,-0.06175888105539455,5.467708582823324,0.10636818923019711,0.318116772196227,-0.007055510814804183,0.05307595658927856,0.0,0.0,0.0,0.0288
577,2.8371536716252135,0.10821913280491927,0.204188798669102,4.777428655565273,1.0818099898028355,-0.31272585533976416,-0.006653185648149314,0.05160479785317157,0.0,0.0,0.0,0.028850000000000004
578,-2.4961862757160085,0.14527962916228862,-0.08154341766483422,4.666153733122506,-0.2954261688307166,-0.6499341099433134,0.014929426761118598,0.05089333586145279,0.0,0.0,0.0,0.028900000000000002
579,2.939228207062236,0.1228296943093889,0.01573907867475288,5.168707081903462,0.24241797750054672,0.0255355126580189,-0.0014739167597351082,0.0582458468307113,0.0,0.0,0.0,0.028950000000000004
580,2.732155561717979,-0.14579419476020136,0.011582617767434876,4.6910051067659735,-0.997015180763888,0.24973992726471433,-0.0058159863288299975,0.03830765934308685,0.0,0.0,0.0,0.028999999999999998
581,3.0102107450699744,0.15225448754908877,0.04264157974776075,5.456873926441277,0.7230283347433417,-0.810864391699843,-0.01514915464401605,0.05100720589577791,0.0,0.0,0.0,0.029050000000000003
582,2.84211857441622,-0.10488486327130096,-0.009489694708849201,5.040731371582786,0.02271387388505526,1.3618263303290226,-0.0071346121180338,0.019655428521436716,0.0,0.0,0.0,0.029100000000000004
583,-3.1219747526815675,0.03862329009998022,-0.016252805877764752,4.944320597943395,0.13201006719957667,-0.3674611567298672,-0.013642755722190189,0.04390961164972389,0.0,0.0,0.0,0.029150000000000002
584,2.586265987067734,0.0019248314136419567,0.08228732004012117,5.3046426876700785,-0.5768833710947945,-0.46346436155452425,-0.012739281868412153,0.05743411486511005,0.0,0.0,0.0,0.029199999999999997
585,2.8144232580349327,-0.25917817221233697,-0.09929386649925347,4.253901339676667,-1.5558101897758374,0.6245801168804257,0.000757123556581695,0.0689001989911655,0.0,0.0,0.0,0.029250000000000005
586,2.429104029485548,0.08386951575955681,0.026304784328584383,5.347208658748908,-0.16221743183595344,-0.43926150354659105,0.003580119154398819,0.07168068285796336,0.0,0.0,0.0,0.029300000000000003
587,-2.649791783914739,0.16624032718766862,0.1889595520501631,4.848850898485743,0.262209374428649,-0.6962419497315337,0.004413220674788047,0.035479319802156066,0.0,0.0,0.0,0.029350000000000005
588,-3.0922264210763704,-0.12332984225148438,0.2195126204496883,4.332189325396282,1.357487740101592,-1.3813792081670533,-0.01573734873541064,0.05991122884603311,0.0,0.0,0.0,0.0294
589,-3.062169784097113,0.06502091482570295,0.07385863292273237,5.407282348335569,1.233213095855516,0.07658500490230502,0.013463113452064291,0.05064388069986518,0.0,0.0,0.0,0.029449999999999997
590,-2.705231082802098,-0.35423735050468935,-0.03532338343446111,4.733867861737917,0.9393169931310746,1.5958547096416291,-0.010369686778568893,0.04499881156216015,0.0,0.0,0.0,0.029500000000000005
591,-2.9161894813169726,-0.20837099493103242,0.029161857381997093,4.225350180808349,1.2646742514786449,0.3251494659759157,-0.018687120561927027,0.04815952275076631,0.0,0.0,0.0,0.029550000000000003
592,2.749422784192661,0.08616071230086016,0.3444008508830171,4.557069958110136,1.2625277798413608,0.5019981443414128,0.003670436037458341,0.04169722356567148,0.0,0.0,0.0,0.029599999999999998
593,-2.9525448277790405,-0.199254940807601,0.06596438264606454,4.656295571253588,1.2088723814220383,0.743048275434071,-0.015684397731297844,0.061964145694743025,0.0,0.0,0.0,0.02965
594,-2.665888620561613,-0.08607181555582169,-0.09907234100746243,5.785622427244979,-0.02785586781881022,0.5798974024658894,-0.008391699105036263,0.050818621907272876,0.0,0.0,0.0,0.029700000000000004
595,-2.7948789498888496,0.3415167468414809,0.13515642458747776,5.005703737298408,0.4841832449044633,-1.1712032625111732,-0.010145807678678755,0.063659606810267,0.0,0.0,0.0,0.029750000000000006
596,-2.802144866420589,0.0470720361025187,-0.04394726934712946,4.6453994437028205,-0.6653038874845183,-0.30530577422688265,-0.007287337967134601,0.0489236526875275,0.0,0.0,0.0,0.0298
597,-2.478902534404658,0.039227413564380996,-0.07648400301257653,4.722266486390627,-0.6027811540512428,0.6911527679362681,0.00035273300128447083,0.05164757541670948,0.0,0.0,0.0,0.029849999999999998
598,2.85299070966869,-0.22548686556727854,0.00454443298854349,4.899210748122003,-1.297399815368617,1.0451804273073626,0.006949385878560354,0.0639321888344675,0.0,0.0,0.0,0.029900000000000003
599,-3.069734954217348,0.072592127995307,0.3746710392964202,4.623505662009737,0.7006566521350792,-1.4934309965194132,0.006946922843759459,0.048406256932354036,0.0,0.0,0.0,0.029950000000000004
600,2.562574767511211,-0.035061866211712804,-0.13979763208801677,4.9093570578612145,-0.27929182405375624,0.2539042162125515,-0.005777386827518017,0.0482421275935549,0.0,0.0,0.0,0.030000000000000006
601,3.008176611945045,0.07553172666697384,-0.16714804906962727,5.228426597149433,-0.6092759652528729,0.022112070694487868,0.006212874397453914,0.05507541006874136,0.0,0.0,0.0,0.03005
602,2.9961672900688776,-0.09109069134389215,0.22083712772032527,4.503454384773024,-0.14171043776495096,0.35857085351922446,0.00723209283203687,0.0551655020478337,0.0,0.0,0.0,0.030100000000000005
603,-3.1359099128944563,0.08745554553284873,0.0944973879866322,5.266401388056011,-0.02201728200032943,-0.31925636103816385,-0.002341143627603176,0.03738230601627687,0.0,0.0,0.0,0.030150000000000003
604,2.8948960927041756,-0.06060236224145382,-0.015526613374139731,5.533053104296354,-0.8274728681854239,0.10526046896035429,0.004154690076831413,0.05639377774394791,0.0,0.0,0.0,0.030200000000000005
605,2.733695494810715,0.4010065158598982,0.06344824022841822,5.051227382440027,1.371108864272614,-0.24595788430949406,0.013849132445921978,0.04478120792953616,0.0,0.0,0.0,0.03025
606,2.885550039142253,0.1406182179714298,-0.1880340815325846,4.6513361692066555,-0.3293694018326604,-1.3529530853076737,-0.005171491406551263,0.0569763483071261,0.0,0.0,0.0,0.030300000000000004
607,-2.381392271718391,0.06396563675811931,-0.12168968024255843,5.110644370358979,-0.6674991036012545,-0.043766814146162236,-0.0027457024612203822,0.061261432103942935,0.0,0.0,0.0,0.030350000000000005
608,-2.4156002095240643,0.06184247945606934,-0.008765524797013497,4.8614420119513335,-0.05593838533597637,-0.3678363362979904,0.0019044789714751723,0.054321125041625534,0.0,0.0,0.0,0.030400000000000003
609,3.1028243629280867,0.1062659463855442,0.2938626772945685,5.166289643646091,0.8080131693621254,0.10885326681414931,-0.0019076077692328978,0.05039739809489882,0.0,0.0,0.0,0.030449999999999998
610,-3.110970058508235,-0.1236989211406235,-0.05690106914777044,5.166679088715471,0.2497664359305814,0.3501323075800894,-0.010227964526999443,0.04757463537182633,0.0,0.0,0.0,0.030500000000000006
611,-2.5254337648452876,0.011878237593139948,-0.1399323169562866,4.878004076764916,-0.13211737076592323,0.13784585832552088,-0.018182113829632803,0.05396184235354852,0.0,0.0,0.0,0.030550000000000004
612,-2.9031229834454533,0.1869464590889022,0.07957437710729585,5.245480763249114,0.4397608617637673,-1.2719377387206556,-0.012739668207711332,0.03674891074688339,0.0,0.0,0.0,0.030600000000000006
613,3.0884119825017167,-0.3216623983598587,-0.001204924133399466,5.018561516904091,-0.858107058175547,0.862835879310759,0.0002790698079806111,0.049275313600028625,0.0,0.0,0.0,0.03065
614,3.1231265685775043,-0.04076622376910328,0.11235583687495998,4.687320329684648,0.7984622827059115,-0.12308099501812501,-0.002307757966439576,0.05596209301007353,0.0,0.0,0.0,0.030700000000000005
615,-3.0316483916308883,-0.1024195114720463,-0.011062322746897354,5.291011768483234,0.33570577407436203,0.10645322378423366,-0.008156708327797102,0.056994900322405784,0.0,0.0,0.0,0.030750000000000006
616,-3.100868720550463,0.02259192363224801,-0.05770270270859132,5.2120279743825435,-0.11799062825751468,0.3602734279507386,0.013213150527669184,0.07116617845033986,0.0,0.0,0.0,0.030800000000000004
617,2.4515423231131837,0.138575595802007,-0.042263356064937765,4.7982649839237235,0.5802837259759108,-0.08856341813978869,-0.016784310060034065,0.046177842261609266,0.0,0.0,0.0,0.03085
618,3.0519560370878653,-0.08362943578686696,0.08569430630712777,5.158109816376685,-0.7278159738160707,0.8646880239822957,-0.0015277760735415988,0.04345319690124014,0.0,0.0,0.0,0.0309
619,-3.042122454259526,-0.1713670741753099,-0.1971380299410584,5.116813341652787,-0.31552756778297575,0.908571128219238,-0.009228828262083256,0.058076281519097876,0.0,0.0,0.0,0.030950000000000005
620,2.9261122742673598,-0.10742656685962186,0.18426926766145255,4.979154512978941,-0.25774278521672045,-0.01218696882703713,-0.009398039493713678,0.04036426445148514,0.0,0.0,0.0,0.031000000000000007
621,-2.8294851493015236,-0.11134643168864698,-0.00587663756646478,4.463582999205628,0.9298447718611669,-0.4354307488299034,-0.008755880403302642,0.04454090236924759,0.0,0.0,0.0,0.03105
622,-2.701789299630806,-0.03802755108034897,0.007289302141010965,4.645560065720297,-0.1313336441987497,0.289621557103592,-0.001340294000542884,0.0451404563874177,0.0,0.0,0.0,0.0311
623,2.9734590662953595,0.11513943438688574,-0.06748389510082116,4.798395399071015,-0.40884674373595437,-0.009459686945414825,-0.00964421594551593,0.04948735878638149,0.0,0.0,0.0,0.031150000000000004
624,-2.798428293390936,0.3847215621640113,0.026222024244947476,4.8638224153697065,0.04749934856957705,-0.46432987365171774,0.0033385562692124296,0.0700485631022662,0.0,0.0,0.0,0.031200000000000006
625,-2.762002088023764,0.020860907262497768,0.10010097147306225,5.141693129617823,1.1933728034367936,-0.4314517523366113,0.022840274039576447,0.03142618898282652,0.0,0.0,0.0,0.03125
626,-2.9277921550781234,0.0005640602658622385,-0.19104599699274977,5.29510854291842,-0.3978402818854607,0.8919577749172282,0.006281650899824262,0.06532062407540444,0.0,0.0,0.0,0.0313
627,2.93171683270401,-0.2777303557773737,0.1767019807605594,4.8405996496712875,-0.004773308862223269,1.0074501457976166,-0.005429302336022225,0.04806719534981689,0.0,0.0,0.0,0.03135
628,-2.7364163479221286,-0.17703667578457236,-0.23489000229112572,4.822652326944539,-0.09991529463214144,-0.44484690149678824,0.004768158534633702,0.04302092369873371,0.0,0.0,0.0,0.031400000000000004
