time[sec],yaw,pitch,roll,x,y,z,acc_x,acc_y,acc_z,omega_x,omega_y,omega_z
0.0,0.0,0.0,0.0,0.048315798743816,0.0,0.0,0.5005725726992921,0.0,0.0,0.0,0.0,0.0
0.005,0.0,0.0,0.0,0.18889148742262454,0.0,0.0,0.49176389765136014,0.0,0.0,0.0,0.0,0.0
0.01,0.0,0.0,0.0,0.14803120466293385,0.0,0.0,0.48990422070192036,0.0,0.0,0.0,0.0,0.0
0.015,0.0,0.0,0.0,0.20952969104935254,0.0,0.0,0.49233685077129696,0.0,0.0,0.0,0.0,0.0
0.02,0.0,0.0,0.0,-0.2619128017147567,0.0,0.0,0.5046668208009087,0.0,0.0,0.0,0.0,0.0
0.025,0.0,0.0,0.0,0.28017297583388456,0.0,0.0,0.5172734405082238,0.0,0.0,0.0,0.0,0.0
0.03,0.0,0.0,0.0,0.21726104930083406,0.0,0.0,0.48978005958707976,0.0,0.0,0.0,0.0,0.0
0.035,0.0,0.0,0.0,0.05248730589999161,0.0,0.0,0.5082932609880397,0.0,0.0,0.0,0.0,0.0
0.04,0.0,0.0,0.0,0.16284100656115671,0.0,0.0,0.4900605650597854,0.0,0.0,0.0,0.0,0.0
0.045,0.0,0.0,0.0,-0.3031308671685956,0.0,0.0,0.5060840345938523,0.0,0.0,0.0,0.0,0.0
0.05,0.0,0.0,0.0,-0.46121223494950225,0.0,0.0,0.48959771103866406,0.0,0.0,0.0,0.0,0.0
0.055,0.0,0.0,0.0,-0.48632923455756144,0.0,0.0,0.5088599266640154,0.0,0.0,0.0,0.0,0.0
0.06,0.0,0.0,0.0,0.14325261170084072,0.0,0.0,0.4967761730488302,0.0,0.0,0.0,0.0,0.0
0.065,0.0,0.0,0.0,0.01338941316582985,0.0,0.0,0.49532350089717286,0.0,0.0,0.0,0.0,0.0
0.07,0.0,0.0,0.0,0.6427320295996479,0.0,0.0,0.5097578888712844,0.0,0.0,0.0,0.0,0.0
0.075,0.0,0.0,0.0,0.1335484264853767,0.0,0.0,0.5029286560815978,0.0,0.0,0.0,0.0,0.0
0.08,0.0,0.0,0.0,-0.3740764096303793,0.0,0.0,0.4983474433073662,0.0,0.0,0.0,0.0,0.0
0.085,0.0,0.0,0.0,-0.05760517017513187,0.0,0.0,0.49324754598503645,0.0,0.0,0.0,0.0,0.0
0.09,0.0,0.0,0.0,0.41842146608850617,0.0,0.0,0.5029106487017205,0.0,0.0,0.0,0.0,0.0
0.095,0.0,0.0,0.0,-0.4837766574969135,0.0,0.0,0.491457071118616,0.0,0.0,0.0,0.0,0.0
0.1,0.0,0.0,0.0,0.49345053693987223,0.0,0.0,0.5116328674000516,0.0,0.0,0.0,0.0,0.0
0.105,0.0,0.0,0.0,0.31834252430004345,0.0,0.0,0.4865304628538976,0.0,0.0,0.0,0.0,0.0
0.11,0.0,0.0,0.0,0.3265849488589071,0.0,0.0,0.504251204839496,0.0,0.0,0.0,0.0,0.0
0.115,0.0,0.0,0.0,0.1388272488503598,0.0,0.0,0.511295919931274,0.0,0.0,0.0,0.0,0.0
0.12,0.0,0.0,0.0,0.39081730502264705,0.0,0.0,0.494624415774844,0.0,0.0,0.0,0.0,0.0
0.125,0.0,0.0,0.0,0.3273669857756499,0.0,0.0,0.510775741027237,0.0,0.0,0.0,0.0,0.0
0.13,0.0,0.0,0.0,-0.07223671350905539,0.0,0.0,0.4879539602012389,0.0,0.0,0.0,0.0,0.0
0.135,0.0,0.0,0.0,-0.2385536350326932,0.0,0.0,0.4981858225916589,0.0,0.0,0.0,0.0,0.0
0.14,0.0,0.0,0.0,0.2879157628922596,0.0,0.0,0.5105399972181861,0.0,0.0,0.0,0.0,0.0
0.145,0.0,0.0,0.0,0.2522408632376049,0.0,0.0,0.4872591932447268,0.0,0.0,0.0,0.0,0.0
0.15,0.0,0.0,0.0,0.5452829420600583,0.0,0.0,0.5030213437778199,0.0,0.0,0.0,0.0,0.0
0.155,0.0,0.0,0.0,-0.04047090050183098,0.0,0.0,0.49338740115535523,0.0,0.0,0.0,0.0,0.0
0.16,0.0,0.0,0.0,0.08474939148520792,0.0,0.0,0.5130110144772826,0.0,0.0,0.0,0.0,0.0
0.165,0.0,0.0,0.0,-0.32718259463722976,0.0,0.0,0.4843503205462514,0.0,0.0,0.0,0.0,0.0
0.17,0.0,0.0,0.0,-0.08984903827832717,0.0,0.0,0.49483881207730507,0.0,0.0,0.0,0.0,0.0
0.17500000000000002,0.0,0.0,0.0,0.08122964324592843,0.0,0.0,0.514088999282966,0.0,0.0,0.0,0.0,0.0
0.18,0.0,0.0,0.0,0.30145764737806624,0.0,0.0,0.48736867796117667,0.0,0.0,0.0,0.0,0.0
0.185,0.0,0.0,0.0,0.21318296854095242,0.0,0.0,0.4739401230519379,0.0,0.0,0.0,0.0,0.0
0.19,0.0,0.0,0.0,-0.2920800294739261,0.0,0.0,0.49641091690413963,0.0,0.0,0.0,0.0,0.0
0.195,0.0,0.0,0.0,-0.18989319569540217,0.0,0.0,0.49624704703263645,0.0,0.0,0.0,0.0,0.0
0.2,0.0,0.0,0.0,0.06927587925049883,0.0,0.0,0.504497049550215,0.0,0.0,0.0,0.0,0.0
0.20500000000000002,0.0,0.0,0.0,-0.056738868566495224,0.0,0.0,0.5027378584301133,0.0,0.0,0.0,0.0,0.0
0.21,0.0,0.0,0.0,0.5002998984408497,0.0,0.0,0.49402275624232767,0.0,0.0,0.0,0.0,0.0
0.215,0.0,0.0,0.0,0.2947837076920111,0.0,0.0,0.48489178528935806,0.0,0.0,0.0,0.0,0.0
0.22,0.0,0.0,0.0,0.07524210822852065,0.0,0.0,0.4849637499498861,0.0,0.0,0.0,0.0,0.0
0.225,0.0,0.0,0.0,-0.10813343972365765,0.0,0.0,0.5052191954624229,0.0,0.0,0.0,0.0,0.0
0.23,0.0,0.0,0.0,0.0111525727751541,0.0,0.0,0.5125101244853759,0.0,0.0,0.0,0.0,0.0
0.23500000000000001,0.0,0.0,0.0,-0.052357268726133104,0.0,0.0,0.5064159371925233,0.0,0.0,0.0,0.0,0.0
0.24,0.0,0.0,0.0,-0.1735288234589658,0.0,0.0,0.495932275168548,0.0,0.0,0.0,0.0,0.0
0.245,0.0,0.0,0.0,0.022848777973209396,0.0,0.0,0.4974208251473053,0.0,0.0,0.0,0.0,0.0
0.25,0.0,0.0,0.0,0.025900465887952147,0.0,0.0,0.49908920103164994,0.0,0.0,0.0,0.0,0.0
0.255,0.0,0.0,0.0,-0.29824123031955707,0.0,0.0,0.4854016522432629,0.0,0.0,0.0,0.0,0.0
0.26,0.0,0.0,0.0,0.24307314155998594,0.0,0.0,0.49972475943386624,0.0,0.0,0.0,0.0,0.0
0.265,0.0,0.0,0.0,0.31629118658243005,0.0,0.0,0.4970614508750083,0.0,0.0,0.0,0.0,0.0
0.27,0.0,0.0,0.0,0.003468711849750939,0.0,0.0,0.5012297004309583,0.0,0.0,0.0,0.0,0.0
0.275,0.0,0.0,0.0,-0.14258671490940314,0.0,0.0,0.49847867433671716,0.0,0.0,0.0,0.0,0.0
0.28,0.0,0.0,0.0,0.35991731340611705,0.0,0.0,0.4996845929543574,0.0,0.0,0.0,0.0,0.0
0.28500000000000003,0.0,0.0,0.0,-0.014181864937377449,0.0,0.0,0.4960528469909062,0.0,0.0,0.0,0.0,0.0
0.29,0.0,0.0,0.0,-0.003027454627365759,0.0,0.0,0.5033540014512421,0.0,0.0,0.0,0.0,0.0
0.295,0.0,0.0,0.0,0.03450250764291594,0.0,0.0,0.49615303230158264,0.0,0.0,0.0,0.0,0.0
0.3,0.0,0.0,0.0,0.21993933168773078,0.0,0.0,0.49470595365847575,0.0,0.0,0.0,0.0,0.0
0.305,0.0,0.0,0.0,-0.03720806413312676,0.0,0.0,0.5019448483511965,0.0,0.0,0.0,0.0,0.0
0.31,0.0,0.0,0.0,0.6868604810036031,0.0,0.0,0.4901262554568085,0.0,0.0,0.0,0.0,0.0
0.315,0.0,0.0,0.0,0.5139450179486209,0.0,0.0,0.5090504663762911,0.0,0.0,0.0,0.0,0.0
0.32,0.0,0.0,0.0,-0.048449789338239437,0.0,0.0,0.5030774344357017,0.0,0.0,0.0,0.0,0.0
0.325,0.0,0.0,0.0,0.33100259871609533,0.0,0.0,0.4988016258916334,0.0,0.0,0.0,0.0,0.0
0.33,0.0,0.0,0.0,-0.27477819161742845,0.0,0.0,0.49782241420634443,0.0,0.0,0.0,0.0,0.0
0.335,0.0,0.0,0.0,0.36347143595416886,0.0,0.0,0.5076753421350192,0.0,0.0,0.0,0.0,0.0
0.34,0.0,0.0,0.0,0.36061230737793865,0.0,0.0,0.5089021157697134,0.0,0.0,0.0,0.0,0.0
0.34500000000000003,0.0,0.0,0.0,0.5288556577385545,0.0,0.0,0.5103063385242826,0.0,0.0,0.0,0.0,0.0
0.35000000000000003,0.0,0.0,0.0,0.3694782751516852,0.0,0.0,0.5086297324829016,0.0,0.0,0.0,0.0,0.0
0.355,0.0,0.0,0.0,0.07563784396869644,0.0,0.0,0.5000165947987784,0.0,0.0,0.0,0.0,0.0
0.36,0.0,0.0,0.0,0.38775751871327874,0.0,0.0,0.5091036321755262,0.0,0.0,0.0,0.0,0.0
0.365,0.0,0.0,0.0,-0.009771983177910372,0.0,0.0,0.5103116616096256,0.0,0.0,0.0,0.0,0.0
0.37,0.0,0.0,0.0,-0.020306696564018338,0.0,0.0,0.5053970406384743,0.0,0.0,0.0,0.0,0.0
0.375,0.0,0.0,0.0,-0.3324970924440209,0.0,0.0,0.4917867179515553,0.0,0.0,0.0,0.0,0.0
0.38,0.0,0.0,0.0,0.007299101406775036,0.0,0.0,0.5093709541739136,0.0,0.0,0.0,0.0,0.0
0.385,0.0,0.0,0.0,-0.06419853262961152,0.0,0.0,0.4958776338908332,0.0,0.0,0.0,0.0,0.0
0.39,0.0,0.0,0.0,-0.029724892243778698,0.0,0.0,0.48000519644939793,0.0,0.0,0.0,0.0,0.0
0.395,0.0,0.0,0.0,-0.4534317556757433,0.0,0.0,0.48554642304372275,0.0,0.0,0.0,0.0,0.0
0.4,0.0,0.0,0.0,-0.6354227247739542,0.0,0.0,0.49845461279165804,0.0,0.0,0.0,0.0,0.0
0.405,0.0,0.0,0.0,-0.36519446731770505,0.0,0.0,0.4963297297418,0.0,0.0,0.0,0.0,0.0
0.41000000000000003,0.0,0.0,0.0,-0.3518397628131349,0.0,0.0,0.5074359844349025,0.0,0.0,0.0,0.0,0.0
0.41500000000000004,0.0,0.0,0.0,-0.3174583403233642,0.0,0.0,0.5080555665166928,0.0,0.0,0.0,0.0,0.0
0.42,0.0,0.0,0.0,0.07442034196679921,0.0,0.0,0.48377176606371713,0.0,0.0,0.0,0.0,0.0
0.425,0.0,0.0,0.0,-0.071075362448056,0.0,0.0,0.4910318483066173,0.0,0.0,0.0,0.0,0.0
0.43,0.0,0.0,0.0,-0.5597532376989128,0.0,0.0,0.5259742441830028,0.0,0.0,0.0,0.0,0.0
0.435,0.0,0.0,0.0,0.047632829064581356,0.0,0.0,0.5084036668195038,0.0,0.0,0.0,0.0,0.0
0.44,0.0,0.0,0.0,-0.010278192801118281,0.0,0.0,0.5011106543405008,0.0,0.0,0.0,0.0,0.0
0.445,0.0,0.0,0.0,-0.299822915949703,0.0,0.0,0.4941195692769239,0.0,0.0,0.0,0.0,0.0
0.45,0.0,0.0,0.0,0.3206932059775022,0.0,0.0,0.5033056705728912,0.0,0.0,0.0,0.0,0.0
0.455,0.0,0.0,0.0,-0.09546063289735762,0.0,0.0,0.5090163382603194,0.0,0.0,0.0,0.0,0.0
0.46,0.0,0.0,0.0,0.12574176376158655,0.0,0.0,0.4967365591937745,0.0,0.0,0.0,0.0,0.0
0.465,0.0,0.0,0.0,0.27366521650564946,0.0,0.0,0.5017536363163724,0.0,0.0,0.0,0.0,0.0
0.47000000000000003,0.0,0.0,0.0,0.15746646401283573,0.0,0.0,0.48218848810414405,0.0,0.0,0.0,0.0,0.0
0.47500000000000003,0.0,0.0,0.0,0.14939166609375928,0.0,0.0,0.4986073129587735,0.0,0.0,0.0,0.0,0.0
0.48,0.0,0.0,0.0,0.7113680638252852,0.0,0.0,0.5079747297302994,0.0,0.0,0.0,0.0,0.0
0.485,0.0,0.0,0.0,0.19094848859948965,0.0,0.0,0.5018499280007122,0.0,0.0,0.0,0.0,0.0
0.49,0.0,0.0,0.0,-0.10368513878691517,0.0,0.0,0.5123026353059441,0.0,0.0,0.0,0.0,0.0
0.495,0.0,0.0,0.0,0.22103504513536562,0.0,0.0,0.4961176976901655,0.0,0.0,0.0,0.0,0.0
0.5,0.0,0.0,0.0,0.05099042073005098,0.0,0.0,0.49548563530854,0.0,0.0,0.0,0.0,0.0
0.505,0.0,0.0,0.0,0.1163960286928121,0.0,0.0,0.501622725819735,0.0,0.0,0.0,0.0,0.0
0.51,0.0,0.0,0.0,0.12795943940217214,0.0,0.0,0.49365885396996434,0.0,0.0,0.0,0.0,0.0
0.515,0.0,0.0,0.0,0.04916677568407231,0.0,0.0,0.5054000420332322,0.0,0.0,0.0,0.0,0.0
0.52,0.0,0.0,0.0,0.2909946897792456,0.0,0.0,0.5013672849854509,0.0,0.0,0.0,0.0,0.0
0.525,0.0,0.0,0.0,-0.3157231810951769,0.0,0.0,0.4812635762079858,0.0,0.0,0.0,0.0,0.0
0.53,0.0,0.0,0.0,0.5442284519519699,0.0,0.0,0.48538565477651724,0.0,0.0,0.0,0.0,0.0
0.535,0.0,0.0,0.0,0.1476966613424497,0.0,0.0,0.4953842476111757,0.0,0.0,0.0,0.0,0.0
0.54,0.0,0.0,0.0,-0.009711789633376051,0.0,0.0,0.5007835441653364,0.0,0.0,0.0,0.0,0.0
0.545,0.0,0.0,0.0,0.23664926966149874,0.0,0.0,0.4918863587152972,0.0,0.0,0.0,0.0,0.0
0.55,0.0,0.0,0.0,0.05142768890926505,0.0,0.0,0.5005127006696279,0.0,0.0,0.0,0.0,0.0
0.555,0.0,0.0,0.0,0.5603045660862043,0.0,0.0,0.48902833176403826,0.0,0.0,0.0,0.0,0.0
0.56,0.0,0.0,0.0,0.159776820809498,0.0,0.0,0.49462018932303575,0.0,0.0,0.0,0.0,0.0
0.5650000000000001,0.0,0.0,0.0,0.09209607770925109,0.0,0.0,0.5066617381130057,0.0,0.0,0.0,0.0,0.0
0.5700000000000001,0.0,0.0,0.0,0.3134967433220085,0.0,0.0,0.5024472121966523,0.0,0.0,0.0,0.0,0.0
0.5750000000000001,0.0,0.0,0.0,-0.7744101540062762,0.0,0.0,0.4893740871033944,0.0,0.0,0.0,0.0,0.0
0.58,0.0,0.0,0.0,0.2586435872135554,0.0,0.0,0.5081085160745272,0.0,0.0,0.0,0.0,0.0
0.585,0.0,0.0,0.0,-0.1590325909983812,0.0,0.0,0.49918884286150406,0.0,0.0,0.0,0.0,0.0
0.59,0.0,0.0,0.0,0.41335337298154345,0.0,0.0,0.4900416503159122,0.0,0.0,0.0,0.0,0.0
0.595,0.0,0.0,0.0,0.1862668907107438,0.0,0.0,0.49410309876848785,0.0,0.0,0.0,0.0,0.0
0.6,0.0,0.0,0.0,-0.005685624479522117,0.0,0.0,0.5048783011846445,0.0,0.0,0.0,0.0,0.0
0.605,0.0,0.0,0.0,-0.13589277991720022,0.0,0.0,0.5290718875075983,0.0,0.0,0.0,0.0,0.0
0.61,0.0,0.0,0.0,0.6116213325646924,0.0,0.0,0.4861107526886912,0.0,0.0,0.0,0.0,0.0
0.615,0.0,0.0,0.0,0.723552397109298,0.0,0.0,0.5150344928738193,0.0,0.0,0.0,0.0,0.0
0.62,0.0,0.0,0.0,0.15430337178668674,0.0,0.0,0.4848905469580773,0.0,0.0,0.0,0.0,0.0
0.625,0.0,0.0,0.0,0.10383527367100627,0.0,0.0,0.4910958757264186,0.0,0.0,0.0,0.0,0.0
0.63,0.0,0.0,0.0,0.12375824206155864,0.0,0.0,0.5026160430950432,0.0,0.0,0.0,0.0,0.0
0.635,0.0,0.0,0.0,0.37055791762473317,0.0,0.0,0.5050577288843083,0.0,0.0,0.0,0.0,0.0
0.64,0.0,0.0,0.0,-0.2689442200389276,0.0,0.0,0.501976823642175,0.0,0.0,0.0,0.0,0.0
0.645,0.0,0.0,0.0,-0.5789929074357867,0.0,0.0,0.4990500288968644,0.0,0.0,0.0,0.0,0.0
0.65,0.0,0.0,0.0,0.7717911088659829,0.0,0.0,0.5073429980835038,0.0,0.0,0.0,0.0,0.0
0.655,0.0,0.0,0.0,0.3106997881411597,0.0,0.0,0.4892558187770875,0.0,0.0,0.0,0.0,0.0
0.66,0.0,0.0,0.0,-0.2941190900931749,0.0,0.0,0.4951727291217479,0.0,0.0,0.0,0.0,0.0
0.665,0.0,0.0,0.0,0.5214747555994271,0.0,0.0,0.49599431117336507,0.0,0.0,0.0,0.0,0.0
0.67,0.0,0.0,0.0,-0.44728613762135033,0.0,0.0,0.4975762220805738,0.0,0.0,0.0,0.0,0.0
0.675,0.0,0.0,0.0,0.3353572362875054,0.0,0.0,0.5040495822086446,0.0,0.0,0.0,0.0,0.0
0.68,0.0,0.0,0.0,-0.18187229454917533,0.0,0.0,0.5229518040462053,0.0,0.0,0.0,0.0,0.0
0.685,0.0,0.0,0.0,-0.26787728661828825,0.0,0.0,0.48718493039289,0.0,0.0,0.0,0.0,0.0
0.6900000000000001,0.0,0.0,0.0,0.2945006994248477,0.0,0.0,0.49159099608778356,0.0,0.0,0.0,0.0,0.0
0.6950000000000001,0.0,0.0,0.0,-0.06463120965808172,0.0,0.0,0.4930696895702711,0.0,0.0,0.0,0.0,0.0
0.7000000000000001,0.0,0.0,0.0,-0.052483942896481686,0.0,0.0,0.5154676333000203,0.0,0.0,0.0,0.0,0.0
0.705,0.0,0.0,0.0,0.6713431343487506,0.0,0.0,0.5042454302099949,0.0,0.0,0.0,0.0,0.0
0.71,0.0,0.0,0.0,0.15311001311302364,0.0,0.0,0.4926658974864419,0.0,0.0,0.0,0.0,0.0
0.715,0.0,0.0,0.0,0.7921178681155056,0.0,0.0,0.5255530658202531,0.0,0.0,0.0,0.0,0.0
0.72,0.0,0.0,0.0,0.7253687588681381,0.0,0.0,0.4974643532724898,0.0,0.0,0.0,0.0,0.0
0.725,0.0,0.0,0.0,0.18224495570656027,0.0,0.0,0.4975452285541494,0.0,0.0,0.0,0.0,0.0
0.73,0.0,0.0,0.0,-0.14996474424976586,0.0,0.0,0.5021579544388687,0.0,0.0,0.0,0.0,0.0
0.735,0.0,0.0,0.0,0.28116749867518587,0.0,0.0,0.49418097935598565,0.0,0.0,0.0,0.0,0.0
0.74,0.0,0.0,0.0,-0.1286480288171999,0.0,0.0,0.4951910907893401,0.0,0.0,0.0,0.0,0.0
0.745,0.0,0.0,0.0,0.11147454879998012,0.0,0.0,0.49015438683164086,0.0,0.0,0.0,0.0,0.0
0.75,0.0,0.0,0.0,0.44892144471291673,0.0,0.0,0.5065020981702423,0.0,0.0,0.0,0.0,0.0
0.755,0.0,0.0,0.0,-0.22385926936032752,0.0,0.0,0.5043326053921918,0.0,0.0,0.0,0.0,0.0
0.76,0.0,0.0,0.0,0.5679510184309159,0.0,0.0,0.5185927883258443,0.0,0.0,0.0,0.0,0.0
0.765,0.0,0.0,0.0,0.28394180323238477,0.0,0.0,0.5045111719318323,0.0,0.0,0.0,0.0,0.0
0.77,0.0,0.0,0.0,0.13362069147976993,0.0,0.0,0.4993328302498138,0.0,0.0,0.0,0.0,0.0
0.775,0.0,0.0,0.0,-0.212476592614543,0.0,0.0,0.5097184546754101,0.0,0.0,0.0,0.0,0.0
0.78,0.0,0.0,0.0,0.6998240607063757,0.0,0.0,0.4926740822938432,0.0,0.0,0.0,0.0,0.0
0.785,0.0,0.0,0.0,0.36352488266031996,0.0,0.0,0.4894841441165402,0.0,0.0,0.0,0.0,0.0
0.79,0.0,0.0,0.0,0.1252158363388848,0.0,0.0,0.48916632754467226,0.0,0.0,0.0,0.0,0.0
0.795,0.0,0.0,0.0,0.5967580371646524,0.0,0.0,0.508629789190414,0.0,0.0,0.0,0.0,0.0
0.8,0.0,0.0,0.0,-0.06902849651069508,0.0,0.0,0.5018958109078543,0.0,0.0,0.0,0.0,0.0
0.805,0.0,0.0,0.0,-0.15449328699071563,0.0,0.0,0.4873666498011377,0.0,0.0,0.0,0.0,0.0
0.81,0.0,0.0,0.0,0.48577714055123383,0.0,0.0,0.49668649011089966,0.0,0.0,0.0,0.0,0.0
0.8150000000000001,0.0,0.0,0.0,0.2968008142801372,0.0,0.0,0.5046849897240838,0.0,0.0,0.0,0.0,0.0
0.8200000000000001,0.0,0.0,0.0,-0.022713220342010922,0.0,0.0,0.4992452089282956,0.0,0.0,0.0,0.0,0.0
0.8250000000000001,0.0,0.0,0.0,0.45613942533232404,0.0,0.0,0.5080706713320323,0.0,0.0,0.0,0.0,0.0
0.8300000000000001,0.0,0.0,0.0,-0.029199884285170685,0.0,0.0,0.4990451823508414,0.0,0.0,0.0,0.0,0.0
0.835,0.0,0.0,0.0,0.3108726770086013,0.0,0.0,0.5001440434058986,0.0,0.0,0.0,0.0,0.0
0.84,0.0,0.0,0.0,0.011846750586343519,0.0,0.0,0.5154903545405083,0.0,0.0,0.0,0.0,0.0
0.845,0.0,0.0,0.0,0.16554741322347763,0.0,0.0,0.49896143257773673,0.0,0.0,0.0,0.0,0.0
0.85,0.0,0.0,0.0,0.11517013822560071,0.0,0.0,0.5023481855974723,0.0,0.0,0.0,0.0,0.0
0.855,0.0,0.0,0.0,0.22882402419152253,0.0,0.0,0.5158226224036553,0.0,0.0,0.0,0.0,0.0
0.86,0.0,0.0,0.0,0.47681522662971104,0.0,0.0,0.49867863413858393,0.0,0.0,0.0,0.0,0.0
0.865,0.0,0.0,0.0,0.49459097783667866,0.0,0.0,0.49184881257312874,0.0,0.0,0.0,0.0,0.0
0.87,0.0,0.0,0.0,0.44221418157373305,0.0,0.0,0.49004392091906834,0.0,0.0,0.0,0.0,0.0
0.875,0.0,0.0,0.0,0.45599429213335824,0.0,0.0,0.500653062509623,0.0,0.0,0.0,0.0,0.0
0.88,0.0,0.0,0.0,0.4264430309341595,0.0,0.0,0.5071509720917996,0.0,0.0,0.0,0.0,0.0
0.885,0.0,0.0,0.0,0.14299001070292391,0.0,0.0,0.49205964580855877,0.0,0.0,0.0,0.0,0.0
0.89,0.0,0.0,0.0,0.7175301316866014,0.0,0.0,0.4847623330732269,0.0,0.0,0.0,0.0,0.0
0.895,0.0,0.0,0.0,0.6218927548605638,0.0,0.0,0.525226887425463,0.0,0.0,0.0,0.0,0.0
0.9,0.0,0.0,0.0,-0.1533155891692561,0.0,0.0,0.4852772727048917,0.0,0.0,0.0,0.0,0.0
0.905,0.0,0.0,0.0,-0.08685257485425962,0.0,0.0,0.48753085271211455,0.0,0.0,0.0,0.0,0.0
0.91,0.0,0.0,0.0,0.26475882139999174,0.0,0.0,0.4902419774467882,0.0,0.0,0.0,0.0,0.0
0.915,0.0,0.0,0.0,0.6310934366229066,0.0,0.0,0.48378320318036644,0.0,0.0,0.0,0.0,0.0
0.92,0.0,0.0,0.0,0.5786769076947696,0.0,0.0,0.5011159811430832,0.0,0.0,0.0,0.0,0.0
0.925,0.0,0.0,0.0,-0.023843363289136166,0.0,0.0,0.5020023571694082,0.0,0.0,0.0,0.0,0.0
0.93,0.0,0.0,0.0,0.1829778599970107,0.0,0.0,0.5028816208248669,0.0,0.0,0.0,0.0,0.0
0.935,0.0,0.0,0.0,-0.08010008094984761,0.0,0.0,0.4984864583443356,0.0,0.0,0.0,0.0,0.0
0.9400000000000001,0.0,0.0,0.0,0.5642265875940761,0.0,0.0,0.5121933468035486,0.0,0.0,0.0,0.0,0.0
0.9450000000000001,0.0,0.0,0.0,0.15762789787563136,0.0,0.0,0.5163295852265077,0.0,0.0,0.0,0.0,0.0
0.9500000000000001,0.0,0.0,0.0,-0.20727105534190973,0.0,0.0,0.5254537312427975,0.0,0.0,0.0,0.0,0.0
0.9550000000000001,0.0,0.0,0.0,0.1344203707015208,0.0,0.0,0.5010158900582027,0.0,0.0,0.0,0.0,0.0
0.96,0.0,0.0,0.0,0.2998433656870685,0.0,0.0,0.4998855277515612,0.0,0.0,0.0,0.0,0.0
0.965,0.0,0.0,0.0,0.6635342499486493,0.0,0.0,0.48131878009260004,0.0,0.0,0.0,0.0,0.0
0.97,0.0,0.0,0.0,0.49180277244144893,0.0,0.0,0.5041465441252734,0.0,0.0,0.0,0.0,0.0
0.975,0.0,0.0,0.0,0.43836889684674407,0.0,0.0,0.46979055147595183,0.0,0.0,0.0,0.0,0.0
0.98,0.0,0.0,0.0,0.6760795145055015,0.0,0.0,0.5021069388554127,0.0,0.0,0.0,0.0,0.0
0.985,0.0,0.0,0.0,1.0003752576920557,0.0,0.0,0.5032287578801404,0.0,0.0,0.0,0.0,0.0
0.99,0.0,0.0,0.0,0.47196314121827454,0.0,0.0,0.4988557427405416,0.0,0.0,0.0,0.0,0.0
0.995,0.0,0.0,0.0,0.31699523691374193,0.0,0.0,0.4945185997188341,0.0,0.0,0.0,0.0,0.0
1.0,0.0,0.0,0.0,0.4710725899942658,0.0,0.0,0.5062691229399222,0.0,0.0,0.0,0.0,0.0
1.0050000000000001,0.0,0.0,0.0,0.26570287205520415,0.0,0.0,0.4896655108792652,0.0,0.0,0.0,0.0,0.0
1.01,0.0,0.0,0.0,0.20421888107769592,0.0,0.0,0.5014862813411048,0.0,0.0,0.0,0.0,0.0
1.0150000000000001,0.0,0.0,0.0,0.260113694802692,0.0,0.0,0.48734484124032085,0.0,0.0,0.0,0.0,0.0
1.02,0.0,0.0,0.0,0.01240610619617855,0.0,0.0,0.5017801501295519,0.0,0.0,0.0,0.0,0.0
1.025,0.0,0.0,0.0,-0.07737235202582543,0.0,0.0,0.5002862335873767,0.0,0.0,0.0,0.0,0.0
1.03,0.0,0.0,0.0,-0.07744397740959265,0.0,0.0,0.4915587167050169,0.0,0.0,0.0,0.0,0.0
1.035,0.0,0.0,0.0,0.3528976140928997,0.0,0.0,0.5108467166180324,0.0,0.0,0.0,0.0,0.0
1.04,0.0,0.0,0.0,0.4405988819878579,0.0,0.0,0.5022832802995236,0.0,0.0,0.0,0.0,0.0
1.045,0.0,0.0,0.0,0.2716301177029328,0.0,0.0,0.5175192492514474,0.0,0.0,0.0,0.0,0.0
1.05,0.0,0.0,0.0,0.26207221559432536,0.0,0.0,0.5106860196187675,0.0,0.0,0.0,0.0,0.0
1.055,0.0,0.0,0.0,0.38303487291943306,0.0,0.0,0.49074595424197526,0.0,0.0,0.0,0.0,0.0
1.06,0.0,0.0,0.0,-0.15113978363253433,0.0,0.0,0.47796671985377037,0.0,0.0,0.0,0.0,0.0
1.065,0.0,0.0,0.0,0.44379868981329773,0.0,0.0,0.5049767665423922,0.0,0.0,0.0,0.0,0.0
1.07,0.0,0.0,0.0,0.7401911746652937,0.0,0.0,0.48344757061292165,0.0,0.0,0.0,0.0,0.0
1.075,0.0,0.0,0.0,0.4264231632612129,0.0,0.0,0.48973524100640436,0.0,0.0,0.0,0.0,0.0
1.08,0.0,0.0,0.0,0.40873658487172987,0.0,0.0,0.5043501335681612,0.0,0.0,0.0,0.0,0.0
1.085,0.0,0.0,0.0,0.20007114345228377,0.0,0.0,0.508293524391533,0.0,0.0,0.0,0.0,0.0
1.09,0.0,0.0,0.0,0.6035137526417444,0.0,0.0,0.5139633431503794,0.0,0.0,0.0,0.0,0.0
1.095,0.0,0.0,0.0,0.4569236032635893,0.0,0.0,0.5010746096336831,0.0,0.0,0.0,0.0,0.0
1.1,0.0,0.0,0.0,0.27922894490964006,0.0,0.0,0.4897415626339215,0.0,0.0,0.0,0.0,0.0
1.105,0.0,0.0,0.0,0.5756728264882736,0.0,0.0,0.49554739337184267,0.0,0.0,0.0,0.0,0.0
1.11,0.0,0.0,0.0,0.12422991906359354,0.0,0.0,0.5049780334556663,0.0,0.0,0.0,0.0,0.0
1.115,0.0,0.0,0.0,0.18623331114057232,0.0,0.0,0.5040613716241857,0.0,0.0,0.0,0.0,0.0
1.12,0.0,0.0,0.0,0.6197655293664783,0.0,0.0,0.5068743981507173,0.0,0.0,0.0,0.0,0.0
1.125,0.0,0.0,0.0,0.526507995154048,0.0,0.0,0.4945434017936173,0.0,0.0,0.0,0.0,0.0
1.1300000000000001,0.0,0.0,0.0,0.938852377905802,0.0,0.0,0.5009836758769937,0.0,0.0,0.0,0.0,0.0
1.135,0.0,0.0,0.0,0.2117535841108828,0.0,0.0,0.5065149838798385,0.0,0.0,0.0,0.0,0.0
1.1400000000000001,0.0,0.0,0.0,0.6714741191167862,0.0,0.0,0.5198185073941417,0.0,0.0,0.0,0.0,0.0
1.145,0.0,0.0,0.0,0.24409671136414132,0.0,0.0,0.5042452247815906,0.0,0.0,0.0,0.0,0.0
1.1500000000000001,0.0,0.0,0.0,0.671452633260653,0.0,0.0,0.4939278432288314,0.0,0.0,0.0,0.0,0.0
1.155,0.0,0.0,0.0,0.21498551696791535,0.0,0.0,0.5021668611997719,0.0,0.0,0.0,0.0,0.0
1.16,0.0,0.0,0.0,0.3255453390985103,0.0,0.0,0.4865912557562216,0.0,0.0,0.0,0.0,0.0
1.165,0.0,0.0,0.0,0.6322806926631986,0.0,0.0,0.4943791021925805,0.0,0.0,0.0,0.0,0.0
1.17,0.0,0.0,0.0,0.11226556200099447,0.0,0.0,0.5153293066904785,0.0,0.0,0.0,0.0,0.0
1.175,0.0,0.0,0.0,0.7476075975522042,0.0,0.0,0.504392235540632,0.0,0.0,0.0,0.0,0.0
1.18,0.0,0.0,0.0,0.4316792351015314,0.0,0.0,0.49018261878344055,0.0,0.0,0.0,0.0,0.0
1.185,0.0,0.0,0.0,0.3364447284458532,0.0,0.0,0.4988367712628024,0.0,0.0,0.0,0.0,0.0
1.19,0.0,0.0,0.0,0.7398159589319715,0.0,0.0,0.4951690562172275,0.0,0.0,0.0,0.0,0.0
1.195,0.0,0.0,0.0,0.35947509090251645,0.0,0.0,0.48377029068203203,0.0,0.0,0.0,0.0,0.0
1.2,0.0,0.0,0.0,0.07082147361527318,0.0,0.0,0.4857227793316734,0.0,0.0,0.0,0.0,0.0
1.205,0.0,0.0,0.0,0.8277893198566201,0.0,0.0,0.48941352871457,0.0,0.0,0.0,0.0,0.0
1.21,0.0,0.0,0.0,0.32112568786167844,0.0,0.0,0.5033067134934339,0.0,0.0,0.0,0.0,0.0
1.215,0.0,0.0,0.0,-0.17165584980752846,0.0,0.0,0.5034429600963067,0.0,0.0,0.0,0.0,0.0
1.22,0.0,0.0,0.0,0.5686093325482082,0.0,0.0,0.5024719180159575,0.0,0.0,0.0,0.0,0.0
1.225,0.0,0.0,0.0,0.7385871351040642,0.0,0.0,0.5099838974223241,0.0,0.0,0.0,0.0,0.0
1.23,0.0,0.0,0.0,0.6011491423853577,0.0,0.0,0.5083142760766386,0.0,0.0,0.0,0.0,0.0
1.235,0.0,0.0,0.0,0.42107731766155215,0.0,0.0,0.5002416808588325,0.0,0.0,0.0,0.0,0.0
1.24,0.0,0.0,0.0,0.11230270454053524,0.0,0.0,0.49163700238788155,0.0,0.0,0.0,0.0,0.0
1.245,0.0,0.0,0.0,-0.19727253404540163,0.0,0.0,0.5160879748923021,0.0,0.0,0.0,0.0,0.0
1.25,0.0,0.0,0.0,0.2100216349085915,0.0,0.0,0.48062828162225824,0.0,0.0,0.0,0.0,0.0
1.2550000000000001,0.0,0.0,0.0,0.3338965897508581,0.0,0.0,0.4998203004168961,0.0,0.0,0.0,0.0,0.0
1.26,0.0,0.0,0.0,0.7873624023722512,0.0,0.0,0.4982627007598303,0.0,0.0,0.0,0.0,0.0
1.2650000000000001,0.0,0.0,0.0,0.5801353330675099,0.0,0.0,0.5162453591498738,0.0,0.0,0.0,0.0,0.0
1.27,0.0,0.0,0.0,0.3797564389793538,0.0,0.0,0.5033924820317036,0.0,0.0,0.0,0.0,0.0
1.2750000000000001,0.0,0.0,0.0,-0.046491181525778594,0.0,0.0,0.49720615378634747,0.0,0.0,0.0,0.0,0.0
1.28,0.0,0.0,0.0,0.377998102369581,0.0,0.0,0.494864050327592,0.0,0.0,0.0,0.0,0.0
1.285,0.0,0.0,0.0,0.6002558602513773,0.0,0.0,0.4988402854189031,0.0,0.0,0.0,0.0,0.0
1.29,0.0,0.0,0.0,0.536576912039749,0.0,0.0,0.5348965750382129,0.0,0.0,0.0,0.0,0.0
1.295,0.0,0.0,0.0,0.18307861744150492,0.0,0.0,0.5041265706332785,0.0,0.0,0.0,0.0,0.0
1.3,0.0,0.0,0.0,0.16174438659177398,0.0,0.0,0.5056277496185396,0.0,0.0,0.0,0.0,0.0
1.305,0.0,0.0,0.0,0.48856931237438295,0.0,0.0,0.505572881621601,0.0,0.0,0.0,0.0,0.0
1.31,0.0,0.0,0.0,0.263492002042179,0.0,0.0,0.5019331498749039,0.0,0.0,0.0,0.0,0.0
1.315,0.0,0.0,0.0,0.13276174145160632,0.0,0.0,0.49130344692884215,0.0,0.0,0.0,0.0,0.0
1.32,0.0,0.0,0.0,0.7142268651696781,0.0,0.0,0.4996370773594834,0.0,0.0,0.0,0.0,0.0
1.325,0.0,0.0,0.0,0.9932836719752064,0.0,0.0,0.500697092852788,0.0,0.0,0.0,0.0,0.0
1.33,0.0,0.0,0.0,0.7029855994676043,0.0,0.0,0.49813028103772317,0.0,0.0,0.0,0.0,0.0
1.335,0.0,0.0,0.0,0.15853544962439037,0.0,0.0,0.4980949677102564,0.0,0.0,0.0,0.0,0.0
1.34,0.0,0.0,0.0,0.2645022585653568,0.0,0.0,0.5046964970010108,0.0,0.0,0.0,0.0,0.0
1.345,0.0,0.0,0.0,-0.3240270856189418,0.0,0.0,0.4916033704549904,0.0,0.0,0.0,0.0,0.0
1.35,0.0,0.0,0.0,0.6105647788516337,0.0,0.0,0.5021414845449738,0.0,0.0,0.0,0.0,0.0
1.355,0.0,0.0,0.0,0.4072222048942329,0.0,0.0,0.48967795139246184,0.0,0.0,0.0,0.0,0.0
1.36,0.0,0.0,0.0,0.31929781227175397,0.0,0.0,0.4948525133825042,0.0,0.0,0.0,0.0,0.0
1.365,0.0,0.0,0.0,0.44996401913624606,0.0,0.0,0.4916461043395338,0.0,0.0,0.0,0.0,0.0
1.37,0.0,0.0,0.0,0.6284424825347675,0.0,0.0,0.5137231969315034,0.0,0.0,0.0,0.0,0.0
1.375,0.0,0.0,0.0,-0.18049703442518011,0.0,0.0,0.49401223538494343,0.0,0.0,0.0,0.0,0.0
1.3800000000000001,0.0,0.0,0.0,0.6313382130177885,0.0,0.0,0.4949676617295981,0.0,0.0,0.0,0.0,0.0
1.385,0.0,0.0,0.0,-0.12417374653432928,0.0,0.0,0.4942330198375687,0.0,0.0,0.0,0.0,0.0
1.3900000000000001,0.0,0.0,0.0,0.8934201073237372,0.0,0.0,0.4968238584987775,0.0,0.0,0.0,0.0,0.0
1.395,0.0,0.0,0.0,0.08766054949834935,0.0,0.0,0.5000408750261395,0.0,0.0,0.0,0.0,0.0
1.4000000000000001,0.0,0.0,0.0,0.41910054865362534,0.0,0.0,0.5091383852078757,0.0,0.0,0.0,0.0,0.0
1.405,0.0,0.0,0.0,0.36685029424630206,0.0,0.0,0.47851664714634645,0.0,0.0,0.0,0.0,0.0
1.41,0.0,0.0,0.0,0.940709022666024,0.0,0.0,0.4899354124425564,0.0,0.0,0.0,0.0,0.0
1.415,0.0,0.0,0.0,0.3373969581289327,0.0,0.0,0.4978223219434995,0.0,0.0,0.0,0.0,0.0
1.42,0.0,0.0,0.0,0.2952694054505145,0.0,0.0,0.4906408481299979,0.0,0.0,0.0,0.0,0.0
1.425,0.0,0.0,0.0,0.36674064849855,0.0,0.0,0.5051773203801491,0.0,0.0,0.0,0.0,0.0
1.43,0.0,0.0,0.0,1.0736380267870114,0.0,0.0,0.4915771327711268,0.0,0.0,0.0,0.0,0.0
1.435,0.0,0.0,0.0,0.7046337714971065,0.0,0.0,0.4928987034173146,0.0,0.0,0.0,0.0,0.0
1.44,0.0,0.0,0.0,1.161159232890428,0.0,0.0,0.4823305338151774,0.0,0.0,0.0,0.0,0.0
1.445,0.0,0.0,0.0,0.19498150704529338,0.0,0.0,0.49746566693262567,0.0,0.0,0.0,0.0,0.0
1.45,0.0,0.0,0.0,0.48722157265002375,0.0,0.0,0.5098600162573863,0.0,0.0,0.0,0.0,0.0
1.455,0.0,0.0,0.0,0.135139608552901,0.0,0.0,0.5154691536129595,0.0,0.0,0.0,0.0,0.0
1.46,0.0,0.0,0.0,0.4068801584779278,0.0,0.0,0.5238290931954462,0.0,0.0,0.0,0.0,0.0
1.465,0.0,0.0,0.0,0.15577402890339326,0.0,0.0,0.4926015282632479,0.0,0.0,0.0,0.0,0.0
1.47,0.0,0.0,0.0,0.3432015851308431,0.0,0.0,0.5108224815765511,0.0,0.0,0.0,0.0,0.0
1.475,0.0,0.0,0.0,-0.1618416261747954,0.0,0.0,0.5047935596149952,0.0,0.0,0.0,0.0,0.0
1.48,0.0,0.0,0.0,0.47749472912909224,0.0,0.0,0.5021954420666105,0.0,0.0,0.0,0.0,0.0
1.485,0.0,0.0,0.0,0.051951400005449316,0.0,0.0,0.5059205132025884,0.0,0.0,0.0,0.0,0.0
1.49,0.0,0.0,0.0,0.8041322850489048,0.0,0.0,0.5047668182447828,0.0,0.0,0.0,0.0,0.0
1.495,0.0,0.0,0.0,0.41045691345892077,0.0,0.0,0.504746789377819,0.0,0.0,0.0,0.0,0.0
1.5,0.0,0.0,0.0,1.1322050343760135,0.0,0.0,0.4942511239539443,0.0,0.0,0.0,0.0,0.0
1.5050000000000001,0.0,0.0,0.0,0.8228691347621075,0.0,0.0,0.49551339831611796,0.0,0.0,0.0,0.0,0.0
1.51,0.0,0.0,0.0,1.0481384963785059,0.0,0.0,0.5091958842056495,0.0,0.0,0.0,0.0,0.0
1.5150000000000001,0.0,0.0,0.0,0.5025834285897064,0.0,0.0,0.5068962831458004,0.0,0.0,0.0,0.0,0.0
1.52,0.0,0.0,0.0,0.05009728215408911,0.0,0.0,0.522959139459191,0.0,0.0,0.0,0.0,0.0
1.5250000000000001,0.0,0.0,0.0,0.5219958201685422,0.0,0.0,0.4923072106200014,0.0,0.0,0.0,0.0,0.0
1.53,0.0,0.0,0.0,0.7214121304910497,0.0,0.0,0.4964825690421367,0.0,0.0,0.0,0.0,0.0
1.5350000000000001,0.0,0.0,0.0,0.4371856873878371,0.0,0.0,0.49860752565528815,0.0,0.0,0.0,0.0,0.0
1.54,0.0,0.0,0.0,0.567045147936239,0.0,0.0,0.4959647855368871,0.0,0.0,0.0,0.0,0.0
1.545,0.0,0.0,0.0,0.27612192531095364,0.0,0.0,0.506186802177814,0.0,0.0,0.0,0.0,0.0
1.55,0.0,0.0,0.0,0.660898341994334,0.0,0.0,0.5072946818638597,0.0,0.0,0.0,0.0,0.0
1.555,0.0,0.0,0.0,0.9803699562841237,0.0,0.0,0.49224800697678167,0.0,0.0,0.0,0.0,0.0
1.56,0.0,0.0,0.0,0.8166522128163575,0.0,0.0,0.5110745950432339,0.0,0.0,0.0,0.0,0.0
1.565,0.0,0.0,0.0,1.0864033486481413,0.0,0.0,0.5224793162340186,0.0,0.0,0.0,0.0,0.0
1.57,0.0,0.0,0.0,0.7543733913327892,0.0,0.0,0.4876869946897569,0.0,0.0,0.0,0.0,0.0
1.575,0.0,0.0,0.0,0.0885192157786457,0.0,0.0,0.48677741974388167,0.0,0.0,0.0,0.0,0.0
1.58,0.0,0.0,0.0,1.3598991730484558,0.0,0.0,0.5020536285063311,0.0,0.0,0.0,0.0,0.0
1.585,0.0,0.0,0.0,0.8163308674512958,0.0,0.0,0.4916578879196129,0.0,0.0,0.0,0.0,0.0
1.59,0.0,0.0,0.0,0.5854552568341158,0.0,0.0,0.5124109901071551,0.0,0.0,0.0,0.0,0.0
1.595,0.0,0.0,0.0,0.42975799359721095,0.0,0.0,0.4912628126147525,0.0,0.0,0.0,0.0,0.0
1.6,0.0,0.0,0.0,0.6922357271320336,0.0,0.0,0.4944268144004017,0.0,0.0,0.0,0.0,0.0
1.605,0.0,0.0,0.0,1.1734063929313623,0.0,0.0,0.49481528615858544,0.0,0.0,0.0,0.0,0.0
1.61,0.0,0.0,0.0,0.648941496359018,0.0,0.0,0.49344742605316755,0.0,0.0,0.0,0.0,0.0
1.615,0.0,0.0,0.0,0.4722400124095955,0.0,0.0,0.5078768276660209,0.0,0.0,0.0,0.0,0.0
1.62,0.0,0.0,0.0,0.4291827514689599,0.0,0.0,0.5059984558870139,0.0,0.0,0.0,0.0,0.0
1.625,0.0,0.0,0.0,1.110062079847583,0.0,0.0,0.5067703667874972,0.0,0.0,0.0,0.0,0.0
1.6300000000000001,0.0,0.0,0.0,0.3951844121652996,0.0,0.0,0.4990160358098476,0.0,0.0,0.0,0.0,0.0
1.635,0.0,0.0,0.0,0.623012533544626,0.0,0.0,0.48832262892324274,0.0,0.0,0.0,0.0,0.0
1.6400000000000001,0.0,0.0,0.0,0.463046160316723,0.0,0.0,0.511838821294503,0.0,0.0,0.0,0.0,0.0
1.645,0.0,0.0,0.0,0.32233481258496904,0.0,0.0,0.48343186180855885,0.0,0.0,0.0,0.0,0.0
1.6500000000000001,0.0,0.0,0.0,1.0013269783719132,0.0,0.0,0.5056365923562908,0.0,0.0,0.0,0.0,0.0
1.655,0.0,0.0,0.0,0.7200870560904914,0.0,0.0,0.49276999702706126,0.0,0.0,0.0,0.0,0.0
1.6600000000000001,0.0,0.0,0.0,1.2761639768268556,0.0,0.0,0.5048286325904174,0.0,0.0,0.0,0.0,0.0
1.665,0.0,0.0,0.0,0.45121525265732776,0.0,0.0,0.4998909964468528,0.0,0.0,0.0,0.0,0.0
1.67,0.0,0.0,0.0,0.9104394549003395,0.0,0.0,0.4815021639697013,0.0,0.0,0.0,0.0,0.0
1.675,0.0,0.0,0.0,1.4458013089705386,0.0,0.0,0.5136692730914436,0.0,0.0,0.0,0.0,0.0
1.68,0.0,0.0,0.0,0.7109961957293718,0.0,0.0,0.5025547362942888,0.0,0.0,0.0,0.0,0.0
1.685,0.0,0.0,0.0,0.6663093207219591,0.0,0.0,0.48823900271449383,0.0,0.0,0.0,0.0,0.0
1.69,0.0,0.0,0.0,1.077904477501053,0.0,0.0,0.5074875591746836,0.0,0.0,0.0,0.0,0.0
1.695,0.0,0.0,0.0,1.1096792738111052,0.0,0.0,0.4919442556615475,0.0,0.0,0.0,0.0,0.0
1.7,0.0,0.0,0.0,0.22047940329637344,0.0,0.0,0.4916284821198631,0.0,0.0,0.0,0.0,0.0
1.705,0.0,0.0,0.0,0.8690610777747954,0.0,0.0,0.5093271170210516,0.0,0.0,0.0,0.0,0.0
1.71,0.0,0.0,0.0,0.9868004795249284,0.0,0.0,0.5113182443764487,0.0,0.0,0.0,0.0,0.0
1.715,0.0,0.0,0.0,1.113286507407568,0.0,0.0,0.5041794521924609,0.0,0.0,0.0,0.0,0.0
1.72,0.0,0.0,0.0,0.6533728654488519,0.0,0.0,0.5128826167454801,0.0,0.0,0.0,0.0,0.0
1.725,0.0,0.0,0.0,0.8140319753569476,0.0,0.0,0.5066883404294943,0.0,0.0,0.0,0.0,0.0
1.73,0.0,0.0,0.0,0.624790067341771,0.0,0.0,0.4985525590376193,0.0,0.0,0.0,0.0,0.0
1.735,0.0,0.0,0.0,0.8711972820968205,0.0,0.0,0.4940324871257992,0.0,0.0,0.0,0.0,0.0
1.74,0.0,0.0,0.0,0.05223547395638395,0.0,0.0,0.5050205688608176,0.0,0.0,0.0,0.0,0.0
1.745,0.0,0.0,0.0,0.43418882436332373,0.0,0.0,0.4991301441849596,0.0,0.0,0.0,0.0,0.0
1.75,0.0,0.0,0.0,0.47514436317739545,0.0,0.0,0.4999831150575003,0.0,0.0,0.0,0.0,0.0
1.7550000000000001,0.0,0.0,0.0,1.0326388935837578,0.0,0.0,0.5028077161498079,0.0,0.0,0.0,0.0,0.0
1.76,0.0,0.0,0.0,0.4802126014624314,0.0,0.0,0.4972128476837054,0.0,0.0,0.0,0.0,0.0
1.7650000000000001,0.0,0.0,0.0,0.6955066911598436,0.0,0.0,0.5083116232553582,0.0,0.0,0.0,0.0,0.0
1.77,0.0,0.0,0.0,0.47135225568029204,0.0,0.0,0.4943871022951077,0.0,0.0,0.0,0.0,0.0
1.7750000000000001,0.0,0.0,0.0,0.91179536303168,0.0,0.0,0.5023405025867458,0.0,0.0,0.0,0.0,0.0
1.78,0.0,0.0,0.0,0.8864821589241106,0.0,0.0,0.49730781144414427,0.0,0.0,0.0,0.0,0.0
1.7850000000000001,0.0,0.0,0.0,0.8525963135229035,0.0,0.0,0.5057038971100444,0.0,0.0,0.0,0.0,0.0
1.79,0.0,0.0,0.0,1.0740169703666846,0.0,0.0,0.5069452001609399,0.0,0.0,0.0,0.0,0.0
1.795,0.0,0.0,0.0,0.8901196284895954,0.0,0.0,0.47922057711913413,0.0,0.0,0.0,0.0,0.0
1.8,0.0,0.0,0.0,1.0134764725171406,0.0,0.0,0.48820660055772874,0.0,0.0,0.0,0.0,0.0
1.805,0.0,0.0,0.0,1.113080590226205,0.0,0.0,0.4963147489586937,0.0,0.0,0.0,0.0,0.0
1.81,0.0,0.0,0.0,1.4473960778056747,0.0,0.0,0.5049198759511253,0.0,0.0,0.0,0.0,0.0
1.815,0.0,0.0,0.0,0.8737838078396287,0.0,0.0,0.5144899903505527,0.0,0.0,0.0,0.0,0.0
1.82,0.0,0.0,0.0,1.1489834182316336,0.0,0.0,0.515722377983864,0.0,0.0,0.0,0.0,0.0
1.825,0.0,0.0,0.0,0.5086729412508342,0.0,0.0,0.5087745170512888,0.0,0.0,0.0,0.0,0.0
1.83,0.0,0.0,0.0,1.0526061272917107,0.0,0.0,0.4996018394676587,0.0,0.0,0.0,0.0,0.0
1.835,0.0,0.0,0.0,1.0293718027288103,0.0,0.0,0.5064525322283542,0.0,0.0,0.0,0.0,0.0
1.84,0.0,0.0,0.0,0.6598084949679968,0.0,0.0,0.5027753726876396,0.0,0.0,0.0,0.0,0.0
1.845,0.0,0.0,0.0,0.8527991094458527,0.0,0.0,0.5041510864284637,0.0,0.0,0.0,0.0,0.0
1.85,0.0,0.0,0.0,0.4996919109769958,0.0,0.0,0.5098836422362999,0.0,0.0,0.0,0.0,0.0
1.855,0.0,0.0,0.0,0.44004706560810486,0.0,0.0,0.5077051080079031,0.0,0.0,0.0,0.0,0.0
1.86,0.0,0.0,0.0,1.0021387439463925,0.0,0.0,0.4986545058447904,0.0,0.0,0.0,0.0,0.0
1.865,0.0,0.0,0.0,1.1356688720371582,0.0,0.0,0.4999789223290799,0.0,0.0,0.0,0.0,0.0
1.87,0.0,0.0,0.0,0.7088662295134405,0.0,0.0,0.49888007536706763,0.0,0.0,0.0,0.0,0.0
1.875,0.0,0.0,0.0,0.8999763382372701,0.0,0.0,0.48966879965003857,0.0,0.0,0.0,0.0,0.0
1.8800000000000001,0.0,0.0,0.0,0.8720739418107374,0.0,0.0,0.5090856489869618,0.0,0.0,0.0,0.0,0.0
1.885,0.0,0.0,0.0,0.40729683958489565,0.0,0.0,0.5093788418378807,0.0,0.0,0.0,0.0,0.0
1.8900000000000001,0.0,0.0,0.0,1.4425428585435647,0.0,0.0,0.512765124979476,0.0,0.0,0.0,0.0,0.0
1.895,0.0,0.0,0.0,1.4124405447925845,0.0,0.0,0.49726194540544366,0.0,0.0,0.0,0.0,0.0
1.9000000000000001,0.0,0.0,0.0,0.8240792461162444,0.0,0.0,0.49541467745005846,0.0,0.0,0.0,0.0,0.0
1.905,0.0,0.0,0.0,1.3889163465168395,0.0,0.0,0.4828820129482321,0.0,0.0,0.0,0.0,0.0
1.9100000000000001,0.0,0.0,0.0,0.4208034710102511,0.0,0.0,0.48407053643088416,0.0,0.0,0.0,0.0,0.0
1.915,0.0,0.0,0.0,1.8884100586832726,0.0,0.0,0.4693158925239002,0.0,0.0,0.0,0.0,0.0
1.92,0.0,0.0,0.0,0.660509947267785,0.0,0.0,0.5042045754805662,0.0,0.0,0.0,0.0,0.0
1.925,0.0,0.0,0.0,1.0014777216160557,0.0,0.0,0.5009290901974273,0.0,0.0,0.0,0.0,0.0
1.93,0.0,0.0,0.0,1.3471984894797107,0.0,0.0,0.5087279171180493,0.0,0.0,0.0,0.0,0.0
1.935,0.0,0.0,0.0,1.4603624051834099,0.0,0.0,0.49626387872674654,0.0,0.0,0.0,0.0,0.0
1.94,0.0,0.0,0.0,0.8454328167041755,0.0,0.0,0.4645543999380449,0.0,0.0,0.0,0.0,0.0
1.945,0.0,0.0,0.0,1.045727716398767,0.0,0.0,0.5018906323628334,0.0,0.0,0.0,0.0,0.0
1.95,0.0,0.0,0.0,0.77724564359084,0.0,0.0,0.49462228381016177,0.0,0.0,0.0,0.0,0.0
1.955,0.0,0.0,0.0,1.084059240014197,0.0,0.0,0.5024807011670868,0.0,0.0,0.0,0.0,0.0
1.96,0.0,0.0,0.0,0.3412345497155133,0.0,0.0,0.5065850044862611,0.0,0.0,0.0,0.0,0.0
1.965,0.0,0.0,0.0,1.2181144407445965,0.0,0.0,0.4995618861872694,0.0,0.0,0.0,0.0,0.0
1.97,0.0,0.0,0.0,0.9932513060692574,0.0,0.0,0.47945185549908725,0.0,0.0,0.0,0.0,0.0
1.975,0.0,0.0,0.0,0.5863353187956744,0.0,0.0,0.5184110851726725,0.0,0.0,0.0,0.0,0.0
1.98,0.0,0.0,0.0,0.8041352263920126,0.0,0.0,0.5096182435829955,0.0,0.0,0.0,0.0,0.0
1.985,0.0,0.0,0.0,0.9106814670525427,0.0,0.0,0.5016673280179907,0.0,0.0,0.0,0.0,0.0
1.99,0.0,0.0,0.0,0.862727182760817,0.0,0.0,0.49802410141078335,0.0,0.0,0.0,0.0,0.0
1.995,0.0,0.0,0.0,1.2284002516856702,0.0,0.0,0.5096171112682358,0.0,0.0,0.0,0.0,0.0
2.0,0.0,0.0,0.0,0.7778101855708308,0.0,0.0,0.4876067518247823,0.0,0.0,0.0,0.0,0.0
2.005,0.0,0.0,0.0,1.5954862644399985,0.0,0.0,0.496230895626263,0.0,0.0,0.0,0.0,0.0
2.0100000000000002,0.0,0.0,0.0,1.4189823527342378,0.0,0.0,0.5188474354392801,0.0,0.0,0.0,0.0,0.0
2.015,0.0,0.0,0.0,1.4102859664814613,0.0,0.0,0.49866927886474216,0.0,0.0,0.0,0.0,0.0
2.02,0.0,0.0,0.0,1.5177975734782667,0.0,0.0,0.4899282739183423,0.0,0.0,0.0,0.0,0.0
2.025,0.0,0.0,0.0,1.3819064135446648,0.0,0.0,0.5110536692393853,0.0,0.0,0.0,0.0,0.0
2.0300000000000002,0.0,0.0,0.0,1.1692017984411551,0.0,0.0,0.5019543472312843,0.0,0.0,0.0,0.0,0.0
2.035,0.0,0.0,0.0,0.6900762385235722,0.0,0.0,0.490652472593493,0.0,0.0,0.0,0.0,0.0
2.04,0.0,0.0,0.0,1.2813024100228014,0.0,0.0,0.49720121927102495,0.0,0.0,0.0,0.0,0.0
2.045,0.0,0.0,0.0,1.6210876199152098,0.0,0.0,0.5021722499007383,0.0,0.0,0.0,0.0,0.0
2.05,0.0,0.0,0.0,0.6698704649052194,0.0,0.0,0.5082015490551404,0.0,0.0,0.0,0.0,0.0
2.055,0.0,0.0,0.0,0.8757778409754732,0.0,0.0,0.5060943234472413,0.0,0.0,0.0,0.0,0.0
2.06,0.0,0.0,0.0,0.7789075796197845,0.0,0.0,0.49395460121986573,0.0,0.0,0.0,0.0,0.0
2.065,0.0,0.0,0.0,1.1243566037399826,0.0,0.0,0.492914963440872,0.0,0.0,0.0,0.0,0.0
2.07,0.0,0.0,0.0,0.8556825282340585,0.0,0.0,0.49890867030544156,0.0,0.0,0.0,0.0,0.0
2.075,0.0,0.0,0.0,1.4876138466180409,0.0,0.0,0.49999110961056287,0.0,0.0,0.0,0.0,0.0
2.08,0.0,0.0,0.0,1.3174477183037612,0.0,0.0,0.4986396451038893,0.0,0.0,0.0,0.0,0.0
2.085,0.0,0.0,0.0,0.9310922632510654,0.0,0.0,0.5007517937588748,0.0,0.0,0.0,0.0,0.0
2.09,0.0,0.0,0.0,0.7887240584976458,0.0,0.0,0.49243229465745925,0.0,0.0,0.0,0.0,0.0
2.095,0.0,0.0,0.0,1.4094601747146893,0.0,0.0,0.5202951910701298,0.0,0.0,0.0,0.0,0.0
2.1,0.0,0.0,0.0,1.3420389827449541,0.0,0.0,0.529209997406144,0.0,0.0,0.0,0.0,0.0
2.105,0.0,0.0,0.0,0.3987400338753909,0.0,0.0,0.48564812092732584,0.0,0.0,0.0,0.0,0.0
2.11,0.0,0.0,0.0,1.2527430934640293,0.0,0.0,0.5153709818985568,0.0,0.0,0.0,0.0,0.0
2.115,0.0,0.0,0.0,0.7546530948851583,0.0,0.0,0.5123218417224641,0.0,0.0,0.0,0.0,0.0
2.12,0.0,0.0,0.0,0.7588496696624281,0.0,0.0,0.5002242950751333,0.0,0.0,0.0,0.0,0.0
2.125,0.0,0.0,0.0,0.6689819579738565,0.0,0.0,0.4971762324706981,0.0,0.0,0.0,0.0,0.0
2.13,0.0,0.0,0.0,0.884672276619651,0.0,0.0,0.5014324077297447,0.0,0.0,0.0,0.0,0.0
2.1350000000000002,0.0,0.0,0.0,1.5098077721648648,0.0,0.0,0.49670221945093546,0.0,0.0,0.0,0.0,0.0
2.14,0.0,0.0,0.0,1.208728700409024,0.0,0.0,0.4963181788965519,0.0,0.0,0.0,0.0,0.0
2.145,0.0,0.0,0.0,0.5954769456706916,0.0,0.0,0.48322845622378635,0.0,0.0,0.0,0.0,0.0
2.15,0.0,0.0,0.0,1.2917262254116453,0.0,0.0,0.4943564693534876,0.0,0.0,0.0,0.0,0.0
2.1550000000000002,0.0,0.0,0.0,1.5015456321364948,0.0,0.0,0.5056520623206794,0.0,0.0,0.0,0.0,0.0
2.16,0.0,0.0,0.0,1.2758606681205116,0.0,0.0,0.5023929275481996,0.0,0.0,0.0,0.0,0.0
2.165,0.0,0.0,0.0,1.0399867516495496,0.0,0.0,0.49779117192346184,0.0,0.0,0.0,0.0,0.0
2.17,0.0,0.0,0.0,1.2225899285018964,0.0,0.0,0.4898474181705271,0.0,0.0,0.0,0.0,0.0
2.1750000000000003,0.0,0.0,0.0,1.4152065713420112,0.0,0.0,0.49424585532439586,0.0,0.0,0.0,0.0,0.0
2.18,0.0,0.0,0.0,1.532095750528708,0.0,0.0,0.5010164336757907,0.0,0.0,0.0,0.0,0.0
2.185,0.0,0.0,0.0,1.2503149574046888,0.0,0.0,0.47576892941353954,0.0,0.0,0.0,0.0,0.0
2.19,0.0,0.0,0.0,0.6958848865522883,0.0,0.0,0.5110037758893785,0.0,0.0,0.0,0.0,0.0
2.195,0.0,0.0,0.0,1.2174236566886985,0.0,0.0,0.5094211195955319,0.0,0.0,0.0,0.0,0.0
2.2,0.0,0.0,0.0,1.6887503968157513,0.0,0.0,0.48596835497707974,0.0,0.0,0.0,0.0,0.0
2.205,0.0,0.0,0.0,1.1771322764069465,0.0,0.0,0.5054844108474081,0.0,0.0,0.0,0.0,0.0
2.21,0.0,0.0,0.0,1.6977529379549967,0.0,0.0,0.49154799574324454,0.0,0.0,0.0,0.0,0.0
2.215,0.0,0.0,0.0,0.6942961271805534,0.0,0.0,0.49903640575416053,0.0,0.0,0.0,0.0,0.0
2.22,0.0,0.0,0.0,1.7565416937308371,0.0,0.0,0.5019947709390721,0.0,0.0,0.0,0.0,0.0
2.225,0.0,0.0,0.0,1.0048742843960048,0.0,0.0,0.4831510803986841,0.0,0.0,0.0,0.0,0.0
2.23,0.0,0.0,0.0,1.6774756503756925,0.0,0.0,0.4979602819217673,0.0,0.0,0.0,0.0,0.0
2.235,0.0,0.0,0.0,0.8387347205506247,0.0,0.0,0.4910530662684569,0.0,0.0,0.0,0.0,0.0
2.24,0.0,0.0,0.0,1.3608267508711314,0.0,0.0,0.49544852605339,0.0,0.0,0.0,0.0,0.0
2.245,0.0,0.0,0.0,1.1759888658155502,0.0,0.0,0.48862781684556406,0.0,0.0,0.0,0.0,0.0
2.25,0.0,0.0,0.0,0.806329597585097,0.0,0.0,0.4942638485525543,0.0,0.0,0.0,0.0,0.0
2.255,0.0,0.0,0.0,1.057830859091637,0.0,0.0,0.5072269725846794,0.0,0.0,0.0,0.0,0.0
2.2600000000000002,0.0,0.0,0.0,0.7936270583328576,0.0,0.0,0.5055567234774971,0.0,0.0,0.0,0.0,0.0
2.265,0.0,0.0,0.0,1.016592264433602,0.0,0.0,0.508753725435602,0.0,0.0,0.0,0.0,0.0
2.27,0.0,0.0,0.0,1.2240538658725348,0.0,0.0,0.4844113037362444,0.0,0.0,0.0,0.0,0.0
2.275,0.0,0.0,0.0,1.2805340410819877,0.0,0.0,0.5030545415148195,0.0,0.0,0.0,0.0,0.0
2.2800000000000002,0.0,0.0,0.0,0.9350989130428843,0.0,0.0,0.5036326745178413,0.0,0.0,0.0,0.0,0.0
2.285,0.0,0.0,0.0,1.269010187469175,0.0,0.0,0.49552985008865774,0.0,0.0,0.0,0.0,0.0
2.29,0.0,0.0,0.0,1.2587156276576592,0.0,0.0,0.5051253043387202,0.0,0.0,0.0,0.0,0.0
2.295,0.0,0.0,0.0,1.0117274724646959,0.0,0.0,0.4889825851358398,0.0,0.0,0.0,0.0,0.0
2.3000000000000003,0.0,0.0,0.0,1.2217517441335752,0.0,0.0,0.4896383757314396,0.0,0.0,0.0,0.0,0.0
2.305,0.0,0.0,0.0,1.248313177340354,0.0,0.0,0.5134935859434749,0.0,0.0,0.0,0.0,0.0
2.31,0.0,0.0,0.0,1.2240941287168863,0.0,0.0,0.48278908478922905,0.0,0.0,0.0,0.0,0.0
2.315,0.0,0.0,0.0,1.2527294426079505,0.0,0.0,0.5056611819128466,0.0,0.0,0.0,0.0,0.0
2.32,0.0,0.0,0.0,1.8236774373397542,0.0,0.0,0.5089359533117652,0.0,0.0,0.0,0.0,0.0
2.325,0.0,0.0,0.0,1.215190329898081,0.0,0.0,0.5017049289586264,0.0,0.0,0.0,0.0,0.0
2.33,0.0,0.0,0.0,1.3684367447395445,0.0,0.0,0.5075753810478092,0.0,0.0,0.0,0.0,0.0
2.335,0.0,0.0,0.0,1.5406194466858478,0.0,0.0,0.5051766153774442,0.0,0.0,0.0,0.0,0.0
2.34,0.0,0.0,0.0,0.8673403460591506,0.0,0.0,0.5154787308999171,0.0,0.0,0.0,0.0,0.0
2.345,0.0,0.0,0.0,1.2147554547105939,0.0,0.0,0.5088699455808298,0.0,0.0,0.0,0.0,0.0
2.35,0.0,0.0,0.0,1.0148295581247657,0.0,0.0,0.487439232929343,0.0,0.0,0.0,0.0,0.0
2.355,0.0,0.0,0.0,1.329769483677574,0.0,0.0,0.5118837975067893,0.0,0.0,0.0,0.0,0.0
2.36,0.0,0.0,0.0,1.5903000159880594,0.0,0.0,0.49468023038996634,0.0,0.0,0.0,0.0,0.0
2.365,0.0,0.0,0.0,1.576774474855257,0.0,0.0,0.48935573388447756,0.0,0.0,0.0,0.0,0.0
2.37,0.0,0.0,0.0,1.2011331247950092,0.0,0.0,0.4944092136587817,0.0,0.0,0.0,0.0,0.0
2.375,0.0,0.0,0.0,1.2465307699420627,0.0,0.0,0.5080264484075522,0.0,0.0,0.0,0.0,0.0
2.38,0.0,0.0,0.0,1.805772594856315,0.0,0.0,0.5049934893035559,0.0,0.0,0.0,0.0,0.0
2.3850000000000002,0.0,0.0,0.0,1.3886801616975297,0.0,0.0,0.49189453081489415,0.0,0.0,0.0,0.0,0.0
2.39,0.0,0.0,0.0,1.638746872489473,0.0,0.0,0.5118143639658581,0.0,0.0,0.0,0.0,0.0
2.395,0.0,0.0,0.0,1.2332713583381953,0.0,0.0,0.5204500638223103,0.0,0.0,0.0,0.0,0.0
2.4,0.0,0.0,0.0,1.4261809854489542,0.0,0.0,0.4973089520858227,0.0,0.0,0.0,0.0,0.0
2.4050000000000002,0.0,0.0,0.0,1.362590104201315,0.0,0.0,0.4925998730643833,0.0,0.0,0.0,0.0,0.0
2.41,0.0,0.0,0.0,2.097558724998432,0.0,0.0,0.5061160505798649,0.0,0.0,0.0,0.0,0.0
2.415,0.0,0.0,0.0,1.1099900765489328,0.0,0.0,0.4990937568085324,0.0,0.0,0.0,0.0,0.0
2.42,0.0,0.0,0.0,1.0240528862199427,0.0,0.0,0.5108280679590087,0.0,0.0,0.0,0.0,0.0
2.4250000000000003,0.0,0.0,0.0,1.6765433483967949,0.0,0.0,0.4952028547039666,0.0,0.0,0.0,0.0,0.0
2.43,0.0,0.0,0.0,2.0768983593164676,0.0,0.0,0.5017042956540243,0.0,0.0,0.0,0.0,0.0
2.435,0.0,0.0,0.0,1.3831971131803047,0.0,0.0,0.4968147134872032,0.0,0.0,0.0,0.0,0.0
2.44,0.0,0.0,0.0,1.5464093279808393,0.0,0.0,0.5094687596924763,0.0,0.0,0.0,0.0,0.0
2.445,0.0,0.0,0.0,1.4163164934025863,0.0,0.0,0.49925744777685666,0.0,0.0,0.0,0.0,0.0
2.45,0.0,0.0,0.0,1.42631979855224,0.0,0.0,0.49980232311558825,0.0,0.0,0.0,0.0,0.0
2.455,0.0,0.0,0.0,1.6292984506346893,0.0,0.0,0.5047627896332673,0.0,0.0,0.0,0.0,0.0
2.46,0.0,0.0,0.0,2.1864596886922563,0.0,0.0,0.49451806144830623,0.0,0.0,0.0,0.0,0.0
2.465,0.0,0.0,0.0,1.851663362139874,0.0,0.0,0.4972239280116487,0.0,0.0,0.0,0.0,0.0
2.47,0.0,0.0,0.0,1.6384888578809915,0.0,0.0,0.493964837457599,0.0,0.0,0.0,0.0,0.0
2.475,0.0,0.0,0.0,1.9122446607555275,0.0,0.0,0.49033120983163797,0.0,0.0,0.0,0.0,0.0
2.48,0.0,0.0,0.0,2.040651028606297,0.0,0.0,0.5056836770652992,0.0,0.0,0.0,0.0,0.0
2.485,0.0,0.0,0.0,1.4660736360563296,0.0,0.0,0.4839993388702592,0.0,0.0,0.0,0.0,0.0
2.49,0.0,0.0,0.0,1.035021576498879,0.0,0.0,0.4951465468148387,0.0,0.0,0.0,0.0,0.0
2.495,0.0,0.0,0.0,1.3914521901648844,0.0,0.0,0.5008153674193206,0.0,0.0,0.0,0.0,0.0
2.5,0.0,0.0,0.0,1.2656814239557173,0.0,0.0,0.491994865804352,0.0,0.0,0.0,0.0,0.0
2.505,0.0,0.0,0.0,1.3654925426982543,0.0,0.0,0.5038346854219142,0.0,0.0,0.0,0.0,0.0
2.5100000000000002,0.0,0.0,0.0,1.4479535796158844,0.0,0.0,0.49064516651132334,0.0,0.0,0.0,0.0,0.0
2.515,0.0,0.0,0.0,1.5743518806120418,0.0,0.0,0.5026917907900439,0.0,0.0,0.0,0.0,0.0
2.52,0.0,0.0,0.0,1.2619390497788605,0.0,0.0,0.4967671798715973,0.0,0.0,0.0,0.0,0.0
2.525,0.0,0.0,0.0,0.8370829168356908,0.0,0.0,0.49583486539360394,0.0,0.0,0.0,0.0,0.0
2.5300000000000002,0.0,0.0,0.0,1.721288444310543,0.0,0.0,0.5032760107513273,0.0,0.0,0.0,0.0,0.0
2.535,0.0,0.0,0.0,2.017445221026181,0.0,0.0,0.4948062167716106,0.0,0.0,0.0,0.0,0.0
2.54,0.0,0.0,0.0,1.3807887847090532,0.0,0.0,0.5174430879339714,0.0,0.0,0.0,0.0,0.0
2.545,0.0,0.0,0.0,1.6676039234631366,0.0,0.0,0.48358900913917324,0.0,0.0,0.0,0.0,0.0
2.5500000000000003,0.0,0.0,0.0,1.661030150695376,0.0,0.0,0.49814933567643066,0.0,0.0,0.0,0.0,0.0
2.555,0.0,0.0,0.0,1.7467556340264796,0.0,0.0,0.499418883344807,0.0,0.0,0.0,0.0,0.0
2.56,0.0,0.0,0.0,2.0150589733663447,0.0,0.0,0.5162130937580153,0.0,0.0,0.0,0.0,0.0
2.565,0.0,0.0,0.0,0.9693990530415588,0.0,0.0,0.4872950907793275,0.0,0.0,0.0,0.0,0.0
2.57,0.0,0.0,0.0,1.244476001106588,0.0,0.0,0.49741086519960775,0.0,0.0,0.0,0.0,0.0
2.575,0.0,0.0,0.0,1.6814452258077128,0.0,0.0,0.5072954970361953,0.0,0.0,0.0,0.0,0.0
2.58,0.0,0.0,0.0,2.0981365368949696,0.0,0.0,0.506042488986409,0.0,0.0,0.0,0.0,0.0
2.585,0.0,0.0,0.0,1.4019538792385486,0.0,0.0,0.4950834837150432,0.0,0.0,0.0,0.0,0.0
2.59,0.0,0.0,0.0,1.5029528485210146,0.0,0.0,0.5034872322475877,0.0,0.0,0.0,0.0,0.0
2.595,0.0,0.0,0.0,2.5281427289504492,0.0,0.0,0.4757786639946155,0.0,0.0,0.0,0.0,0.0
2.6,0.0,0.0,0.0,1.6453464879264397,0.0,0.0,0.5026663344487289,0.0,0.0,0.0,0.0,0.0
2.605,0.0,0.0,0.0,1.3217116336713663,0.0,0.0,0.5001110469416387,0.0,0.0,0.0,0.0,0.0
2.61,0.0,0.0,0.0,2.004042611026585,0.0,0.0,0.5050376911174407,0.0,0.0,0.0,0.0,0.0
2.615,0.0,0.0,0.0,1.5658254123740782,0.0,0.0,0.49564684534868997,0.0,0.0,0.0,0.0,0.0
2.62,0.0,0.0,0.0,0.9820279644752193,0.0,0.0,0.5030886812004433,0.0,0.0,0.0,0.0,0.0
2.625,0.0,0.0,0.0,2.200180501925773,0.0,0.0,0.49576061368927044,0.0,0.0,0.0,0.0,0.0
2.63,0.0,0.0,0.0,1.7446892752008543,0.0,0.0,0.4898776003255277,0.0,0.0,0.0,0.0,0.0
2.6350000000000002,0.0,0.0,0.0,2.0808681294728206,0.0,0.0,0.5154119007024215,0.0,0.0,0.0,0.0,0.0
2.64,0.0,0.0,0.0,2.1796201330694474,0.0,0.0,0.49883301412816183,0.0,0.0,0.0,0.0,0.0
2.645,0.0,0.0,0.0,2.4060506681428175,0.0,0.0,0.5035198203129982,0.0,0.0,0.0,0.0,0.0
2.65,0.0,0.0,0.0,1.1646387592378613,0.0,0.0,0.5050202512213601,0.0,0.0,0.0,0.0,0.0
2.6550000000000002,0.0,0.0,0.0,2.0559719258255185,0.0,0.0,0.5126933938818933,0.0,0.0,0.0,0.0,0.0
2.66,0.0,0.0,0.0,2.0867653979589145,0.0,0.0,0.5070622446903017,0.0,0.0,0.0,0.0,0.0
2.665,0.0,0.0,0.0,1.6106532967380176,0.0,0.0,0.48110214501974197,0.0,0.0,0.0,0.0,0.0
2.67,0.0,0.0,0.0,2.24365123584449,0.0,0.0,0.5032233342709835,0.0,0.0,0.0,0.0,0.0
2.6750000000000003,0.0,0.0,0.0,2.622636512308183,0.0,0.0,0.5087197619548096,0.0,0.0,0.0,0.0,0.0
2.68,0.0,0.0,0.0,2.275310504267187,0.0,0.0,0.5069645670228607,0.0,0.0,0.0,0.0,0.0
2.685,0.0,0.0,0.0,1.3403335099350826,0.0,0.0,0.5242112680711151,0.0,0.0,0.0,0.0,0.0
2.69,0.0,0.0,0.0,2.218461342833359,0.0,0.0,0.5109872421695815,0.0,0.0,0.0,0.0,0.0
2.695,0.0,0.0,0.0,1.4177653261493373,0.0,0.0,0.4985200453456802,0.0,0.0,0.0,0.0,0.0
2.7,0.0,0.0,0.0,2.23603047065251,0.0,0.0,0.490251609010863,0.0,0.0,0.0,0.0,0.0
2.705,0.0,0.0,0.0,1.2191449894808013,0.0,0.0,0.5024924377251367,0.0,0.0,0.0,0.0,0.0
2.71,0.0,0.0,0.0,1.5922470537195776,0.0,0.0,0.477516523236097,0.0,0.0,0.0,0.0,0.0
2.715,0.0,0.0,0.0,1.741384550600583,0.0,0.0,0.5145158355301351,0.0,0.0,0.0,0.0,0.0
2.72,0.0,0.0,0.0,2.025707209433872,0.0,0.0,0.5011159563095885,0.0,0.0,0.0,0.0,0.0
2.725,0.0,0.0,0.0,2.320940826064315,0.0,0.0,0.5089803058148326,0.0,0.0,0.0,0.0,0.0
2.73,0.0,0.0,0.0,1.8657511013609365,0.0,0.0,0.5041439856602709,0.0,0.0,0.0,0.0,0.0
2.735,0.0,0.0,0.0,1.7518853458017314,0.0,0.0,0.4964010124053488,0.0,0.0,0.0,0.0,0.0
2.74,0.0,0.0,0.0,2.3875428041634303,0.0,0.0,0.4974429314645271,0.0,0.0,0.0,0.0,0.0
2.745,0.0,0.0,0.0,2.366920828969038,0.0,0.0,0.5171454898716756,0.0,0.0,0.0,0.0,0.0
2.75,0.0,0.0,0.0,2.100255042761814,0.0,0.0,0.5111256571247678,0.0,0.0,0.0,0.0,0.0
2.755,0.0,0.0,0.0,1.8053047012416295,0.0,0.0,0.5004549605161491,0.0,0.0,0.0,0.0,0.0
2.7600000000000002,0.0,0.0,0.0,1.9005736099208643,0.0,0.0,0.5137026324581818,0.0,0.0,0.0,0.0,0.0
2.765,0.0,0.0,0.0,1.7553221420505865,0.0,0.0,0.49814389190590286,0.0,0.0,0.0,0.0,0.0
2.77,0.0,0.0,0.0,1.3008436372714935,0.0,0.0,0.5034369700214969,0.0,0.0,0.0,0.0,0.0
2.775,0.0,0.0,0.0,2.1569410610444733,0.0,0.0,0.5161157477270258,0.0,0.0,0.0,0.0,0.0
2.7800000000000002,0.0,0.0,0.0,2.4623853641950615,0.0,0.0,0.5051852722640839,0.0,0.0,0.0,0.0,0.0
2.785,0.0,0.0,0.0,2.4420816758040234,0.0,0.0,0.49937848132052237,0.0,0.0,0.0,0.0,0.0
2.79,0.0,0.0,0.0,1.3712652733906792,0.0,0.0,0.4845341015285249,0.0,0.0,0.0,0.0,0.0
2.795,0.0,0.0,0.0,2.307239983616245,0.0,0.0,0.4887515809021786,0.0,0.0,0.0,0.0,0.0
2.8000000000000003,0.0,0.0,0.0,1.620862985734786,0.0,0.0,0.49270742856848077,0.0,0.0,0.0,0.0,0.0
2.805,0.0,0.0,0.0,2.682871540132006,0.0,0.0,0.511737646672486,0.0,0.0,0.0,0.0,0.0
2.81,0.0,0.0,0.0,1.8643929934219632,0.0,0.0,0.4967516299567464,0.0,0.0,0.0,0.0,0.0
2.815,0.0,0.0,0.0,1.663501744869338,0.0,0.0,0.5004534501084211,0.0,0.0,0.0,0.0,0.0
2.82,0.0,0.0,0.0,2.215762855360769,0.0,0.0,0.5100813719710227,0.0,0.0,0.0,0.0,0.0
2.825,0.0,0.0,0.0,2.0111124366270863,0.0,0.0,0.5055726156532133,0.0,0.0,0.0,0.0,0.0
2.83,0.0,0.0,0.0,1.4173816965975408,0.0,0.0,0.5075846210719769,0.0,0.0,0.0,0.0,0.0
2.835,0.0,0.0,0.0,2.271351359530594,0.0,0.0,0.4846387533746313,0.0,0.0,0.0,0.0,0.0
2.84,0.0,0.0,0.0,2.463608137053276,0.0,0.0,0.5022072004366399,0.0,0.0,0.0,0.0,0.0
2.845,0.0,0.0,0.0,2.247404872693715,0.0,0.0,0.4999977803501107,0.0,0.0,0.0,0.0,0.0
2.85,0.0,0.0,0.0,2.1637859916068405,0.0,0.0,0.49313462081008086,0.0,0.0,0.0,0.0,0.0
2.855,0.0,0.0,0.0,2.2738150956552827,0.0,0.0,0.5111208005061745,0.0,0.0,0.0,0.0,0.0
2.86,0.0,0.0,0.0,1.9905439900080664,0.0,0.0,0.48703221856593326,0.0,0.0,0.0,0.0,0.0
2.865,0.0,0.0,0.0,1.7806473567432166,0.0,0.0,0.501809933321706,0.0,0.0,0.0,0.0,0.0
2.87,0.0,0.0,0.0,1.8889601657018302,0.0,0.0,0.49197906683732995,0.0,0.0,0.0,0.0,0.0
2.875,0.0,0.0,0.0,1.994849316015129,0.0,0.0,0.4995557602012326,0.0,0.0,0.0,0.0,0.0
2.88,0.0,0.0,0.0,2.18138935256214,0.0,0.0,0.5012767338750257,0.0,0.0,0.0,0.0,0.0
2.8850000000000002,0.0,0.0,0.0,2.2741343784070263,0.0,0.0,0.47380338713700204,0.0,0.0,0.0,0.0,0.0
2.89,0.0,0.0,0.0,2.1567127799800883,0.0,0.0,0.514009979083775,0.0,0.0,0.0,0.0,0.0
2.895,0.0,0.0,0.0,2.080046316892795,0.0,0.0,0.49805119893346805,0.0,0.0,0.0,0.0,0.0
2.9,0.0,0.0,0.0,1.9405282570801596,0.0,0.0,0.5008892515909026,0.0,0.0,0.0,0.0,0.0
2.9050000000000002,0.0,0.0,0.0,1.967281511802853,0.0,0.0,0.5046874409718519,0.0,0.0,0.0,0.0,0.0
2.91,0.0,0.0,0.0,2.4845409604051722,0.0,0.0,0.49192226010796586,0.0,0.0,0.0,0.0,0.0
2.915,0.0,0.0,0.0,1.867843122128537,0.0,0.0,0.48624063057511174,0.0,0.0,0.0,0.0,0.0
2.92,0.0,0.0,0.0,2.350437904750112,0.0,0.0,0.5023443413162734,0.0,0.0,0.0,0.0,0.0
2.9250000000000003,0.0,0.0,0.0,2.325608144028517,0.0,0.0,0.4764036079513623,0.0,0.0,0.0,0.0,0.0
2.93,0.0,0.0,0.0,2.090492584834767,0.0,0.0,0.5020308507235639,0.0,0.0,0.0,0.0,0.0
2.935,0.0,0.0,0.0,2.105724086476675,0.0,0.0,0.50319655998542,0.0,0.0,0.0,0.0,0.0
2.94,0.0,0.0,0.0,2.716929242264808,0.0,0.0,0.49193577756334345,0.0,0.0,0.0,0.0,0.0
2.945,0.0,0.0,0.0,1.7534461995699486,0.0,0.0,0.49866900424852745,0.0,0.0,0.0,0.0,0.0
2.95,0.0,0.0,0.0,2.174720851965614,0.0,0.0,0.49332852595083876,0.0,0.0,0.0,0.0,0.0
2.955,0.0,0.0,0.0,2.449617967759373,0.0,0.0,0.5032480888107093,0.0,0.0,0.0,0.0,0.0
2.96,0.0,0.0,0.0,3.0101865808737265,0.0,0.0,0.5059329186395527,0.0,0.0,0.0,0.0,0.0
2.965,0.0,0.0,0.0,2.4058286674524254,0.0,0.0,0.5053983041788037,0.0,0.0,0.0,0.0,0.0
2.97,0.0,0.0,0.0,2.1747697191136703,0.0,0.0,0.5071174598822696,0.0,0.0,0.0,0.0,0.0
2.975,0.0,0.0,0.0,2.5698263870853957,0.0,0.0,0.5056712437194198,0.0,0.0,0.0,0.0,0.0
2.98,0.0,0.0,0.0,2.1995601703414187,0.0,0.0,0.5015174201241014,0.0,0.0,0.0,0.0,0.0
2.985,0.0,0.0,0.0,2.3807779746302087,0.0,0.0,0.5014593974699144,0.0,0.0,0.0,0.0,0.0
2.99,0.0,0.0,0.0,3.052374513592707,0.0,0.0,0.504139223850912,0.0,0.0,0.0,0.0,0.0
2.995,0.0,0.0,0.0,2.24206185116628,0.0,0.0,0.4926900254315055,0.0,0.0,0.0,0.0,0.0
3.0,0.0,0.0,0.0,1.7547946838801303,0.0,0.0,0.5021277245710473,0.0,0.0,0.0,0.0,0.0
3.005,0.0,0.0,0.0,2.822338798902059,0.0,0.0,0.510804928148343,0.0,0.0,0.0,0.0,0.0
3.0100000000000002,0.0,0.0,0.0,2.1692110424583806,0.0,0.0,0.5002013367546647,0.0,0.0,0.0,0.0,0.0
3.015,0.0,0.0,0.0,2.541067406198541,0.0,0.0,0.5223353031097852,0.0,0.0,0.0,0.0,0.0
3.02,0.0,0.0,0.0,2.8348864928564237,0.0,0.0,0.5116155246475079,0.0,0.0,0.0,0.0,0.0
3.025,0.0,0.0,0.0,2.3861786399512535,0.0,0.0,0.5108557951466567,0.0,0.0,0.0,0.0,0.0
3.0300000000000002,0.0,0.0,0.0,2.5121098064205754,0.0,0.0,0.48510172232540477,0.0,0.0,0.0,0.0,0.0
3.035,0.0,0.0,0.0,1.914074063452444,0.0,0.0,0.49596376436064366,0.0,0.0,0.0,0.0,0.0
3.04,0.0,0.0,0.0,1.9940381940598988,0.0,0.0,0.496948699934132,0.0,0.0,0.0,0.0,0.0
3.045,0.0,0.0,0.0,1.7913185660549646,0.0,0.0,0.49680152977266745,0.0,0.0,0.0,0.0,0.0
3.0500000000000003,0.0,0.0,0.0,2.7057254464504563,0.0,0.0,0.5147328860599508,0.0,0.0,0.0,0.0,0.0
3.055,0.0,0.0,0.0,1.8777433709495017,0.0,0.0,0.49033315388602927,0.0,0.0,0.0,0.0,0.0
3.06,0.0,0.0,0.0,2.2874710862232814,0.0,0.0,0.507467320058245,0.0,0.0,0.0,0.0,0.0
3.065,0.0,0.0,0.0,2.478480986334477,0.0,0.0,0.47974812857488686,0.0,0.0,0.0,0.0,0.0
3.0700000000000003,0.0,0.0,0.0,2.275105968763774,0.0,0.0,0.5008519658667564,0.0,0.0,0.0,0.0,0.0
3.075,0.0,0.0,0.0,2.6464106925119046,0.0,0.0,0.4957038649326434,0.0,0.0,0.0,0.0,0.0
3.08,0.0,0.0,0.0,2.1489914727712254,0.0,0.0,0.5081378291322041,0.0,0.0,0.0,0.0,0.0
3.085,0.0,0.0,0.0,2.1277313838348646,0.0,0.0,0.48753741502136816,0.0,0.0,0.0,0.0,0.0
3.09,0.0,0.0,0.0,2.759751607914983,0.0,0.0,0.48748927540746767,0.0,0.0,0.0,0.0,0.0
3.095,0.0,0.0,0.0,2.084389517956164,0.0,0.0,0.5018501046267578,0.0,0.0,0.0,0.0,0.0
3.1,0.0,0.0,0.0,2.3565836348035063,0.0,0.0,0.506192998417982,0.0,0.0,0.0,0.0,0.0
3.105,0.0,0.0,0.0,2.468917541799492,0.0,0.0,0.5022496638133146,0.0,0.0,0.0,0.0,0.0
3.11,0.0,0.0,0.0,2.5410920847802103,0.0,0.0,0.49859323777978865,0.0,0.0,0.0,0.0,0.0
3.115,0.0,0.0,0.0,2.269868357452567,0.0,0.0,0.5132720236277672,0.0,0.0,0.0,0.0,0.0
3.12,0.0,0.0,0.0,2.2073649906648205,0.0,0.0,0.4765631744289602,0.0,0.0,0.0,0.0,0.0
3.125,0.0,0.0,0.0,2.00050518149888,0.0,0.0,0.48322730313364126,0.0,0.0,0.0,0.0,0.0
3.13,0.0,0.0,0.0,2.808179201903254,0.0,0.0,0.49431465927789986,0.0,0.0,0.0,0.0,0.0
3.1350000000000002,0.0,0.0,0.0,2.96132434363533,0.0,0.0,0.507621613240667,0.0,0.0,0.0,0.0,0.0
3.14,0.0,0.0,0.0,2.7740855076459776,0.0,0.0,0.4867863963428876,0.0,0.0,0.0,0.0,0.0
3.145,0.0,0.0,0.0,2.6126931656232837,0.0,0.0,0.4983878721718504,0.0,0.0,0.0,0.0,0.0
3.15,0.0,0.0,0.0,2.5182254472988284,0.0,0.0,0.49629751539458467,0.0,0.0,0.0,0.0,0.0
3.1550000000000002,0.0,0.0,0.0,2.447656689099892,0.0,0.0,0.494227490539868,0.0,0.0,0.0,0.0,0.0
3.16,0.0,0.0,0.0,2.125307418644763,0.0,0.0,0.4893939723569455,0.0,0.0,0.0,0.0,0.0
3.165,0.0,0.0,0.0,2.7813944677486377,0.0,0.0,0.49311721437275235,0.0,0.0,0.0,0.0,0.0
3.17,0.0,0.0,0.0,1.8015319575072057,0.0,0.0,0.4992415109557165,0.0,0.0,0.0,0.0,0.0
3.1750000000000003,0.0,0.0,0.0,2.540623641409531,0.0,0.0,0.5083851147891335,0.0,0.0,0.0,0.0,0.0
3.18,0.0,0.0,0.0,2.610522782599001,0.0,0.0,0.48795856863433335,0.0,0.0,0.0,0.0,0.0
3.185,0.0,0.0,0.0,2.5187788733492984,0.0,0.0,0.5057186643411742,0.0,0.0,0.0,0.0,0.0
3.19,0.0,0.0,0.0,2.3839971059327962,0.0,0.0,0.48988006881537854,0.0,0.0,0.0,0.0,0.0
3.1950000000000003,0.0,0.0,0.0,2.6347893437032006,0.0,0.0,0.48649824552088783,0.0,0.0,0.0,0.0,0.0
3.2,0.0,0.0,0.0,2.541466756467034,0.0,0.0,0.4909280895444438,0.0,0.0,0.0,0.0,0.0
3.205,0.0,0.0,0.0,1.834990581536168,0.0,0.0,0.48996525435423166,0.0,0.0,0.0,0.0,0.0
3.21,0.0,0.0,0.0,2.264374780380235,0.0,0.0,0.5085219180220176,0.0,0.0,0.0,0.0,0.0
3.215,0.0,0.0,0.0,2.654286992945226,0.0,0.0,0.5006160942789185,0.0,0.0,0.0,0.0,0.0
3.22,0.0,0.0,0.0,3.0229696281859204,0.0,0.0,0.49632722674547236,0.0,0.0,0.0,0.0,0.0
3.225,0.0,0.0,0.0,2.956907750153719,0.0,0.0,0.5109440431378172,0.0,0.0,0.0,0.0,0.0
3.23,0.0,0.0,0.0,2.2996979073319497,0.0,0.0,0.4953752672119782,0.0,0.0,0.0,0.0,0.0
3.235,0.0,0.0,0.0,3.339032374974043,0.0,0.0,0.5127182460946835,0.0,0.0,0.0,0.0,0.0
3.24,0.0,0.0,0.0,1.9326727266631463,0.0,0.0,0.49526896631366574,0.0,0.0,0.0,0.0,0.0
3.245,0.0,0.0,0.0,2.48679245954602,0.0,0.0,0.4815507690130341,0.0,0.0,0.0,0.0,0.0
3.25,0.0,0.0,0.0,2.5466905419383736,0.0,0.0,0.5094128168801328,0.0,0.0,0.0,0.0,0.0
3.255,0.0,0.0,0.0,2.7827927820100204,0.0,0.0,0.4933563323596704,0.0,0.0,0.0,0.0,0.0
3.2600000000000002,0.0,0.0,0.0,3.0255814356456012,0.0,0.0,0.5002915050983322,0.0,0.0,0.0,0.0,0.0
3.265,0.0,0.0,0.0,2.596112424167024,0.0,0.0,0.49272682455684874,0.0,0.0,0.0,0.0,0.0
3.27,0.0,0.0,0.0,2.409386750281962,0.0,0.0,0.5049286193191419,0.0,0.0,0.0,0.0,0.0
3.275,0.0,0.0,0.0,2.7807603852186444,0.0,0.0,0.4895875331248106,0.0,0.0,0.0,0.0,0.0
3.2800000000000002,0.0,0.0,0.0,2.757755468173617,0.0,0.0,0.5238238902167983,0.0,0.0,0.0,0.0,0.0
3.285,0.0,0.0,0.0,2.6292157677225543,0.0,0.0,0.506025385069967,0.0,0.0,0.0,0.0,0.0
3.29,0.0,0.0,0.0,2.6183990565029593,0.0,0.0,0.48526549224886056,0.0,0.0,0.0,0.0,0.0
3.295,0.0,0.0,0.0,2.2215630248175278,0.0,0.0,0.4992123341446627,0.0,0.0,0.0,0.0,0.0
3.3000000000000003,0.0,0.0,0.0,2.241785350251365,0.0,0.0,0.49480738340411273,0.0,0.0,0.0,0.0,0.0
3.305,0.0,0.0,0.0,2.927567089494009,0.0,0.0,0.5161718806340754,0.0,0.0,0.0,0.0,0.0
3.31,0.0,0.0,0.0,2.6489202368198055,0.0,0.0,0.4748997035222782,0.0,0.0,0.0,0.0,0.0
3.315,0.0,0.0,0.0,2.9004285718078013,0.0,0.0,0.4973202292119715,0.0,0.0,0.0,0.0,0.0
3.3200000000000003,0.0,0.0,0.0,2.5955634749560446,0.0,0.0,0.5009137263121733,0.0,0.0,0.0,0.0,0.0
3.325,0.0,0.0,0.0,2.7324604116938462,0.0,0.0,0.501033856793801,0.0,0.0,0.0,0.0,0.0
3.33,0.0,0.0,0.0,3.1595103479190563,0.0,0.0,0.4968603506539203,0.0,0.0,0.0,0.0,0.0
3.335,0.0,0.0,0.0,2.662110569047797,0.0,0.0,0.49917062258899225,0.0,0.0,0.0,0.0,0.0
3.34,0.0,0.0,0.0,3.0091531799372406,0.0,0.0,0.5025251784067711,0.0,0.0,0.0,0.0,0.0
3.345,0.0,0.0,0.0,2.4805670010609524,0.0,0.0,0.4986606579695571,0.0,0.0,0.0,0.0,0.0
3.35,0.0,0.0,0.0,2.8665944224343303,0.0,0.0,0.4754381270991057,0.0,0.0,0.0,0.0,0.0
3.355,0.0,0.0,0.0,3.039006542371602,0.0,0.0,0.520644575646999,0.0,0.0,0.0,0.0,0.0
3.36,0.0,0.0,0.0,3.339500501948788,0.0,0.0,0.49114919808714524,0.0,0.0,0.0,0.0,0.0
3.365,0.0,0.0,0.0,2.4008556021757532,0.0,0.0,0.49407329096189817,0.0,0.0,0.0,0.0,0.0
3.37,0.0,0.0,0.0,2.6939969152655747,0.0,0.0,0.5054861664271195,0.0,0.0,0.0,0.0,0.0
3.375,0.0,0.0,0.0,3.0049244979612006,0.0,0.0,0.5093483483834484,0.0,0.0,0.0,0.0,0.0
3.38,0.0,0.0,0.0,3.299752078095747,0.0,0.0,0.4988855431164142,0.0,0.0,0.0,0.0,0.0
3.3850000000000002,0.0,0.0,0.0,2.6611865135166672,0.0,0.0,0.5189707471068531,0.0,0.0,0.0,0.0,0.0
3.39,0.0,0.0,0.0,3.163074698690394,0.0,0.0,0.5002094511672418,0.0,0.0,0.0,0.0,0.0
3.395,0.0,0.0,0.0,2.6738643079103115,0.0,0.0,0.506305076233564,0.0,0.0,0.0,0.0,0.0
3.4,0.0,0.0,0.0,2.7446334702540396,0.0,0.0,0.47517339958041993,0.0,0.0,0.0,0.0,0.0
3.4050000000000002,0.0,0.0,0.0,2.6244977064460784,0.0,0.0,0.5112314848676333,0.0,0.0,0.0,0.0,0.0
3.41,0.0,0.0,0.0,2.7923409123453333,0.0,0.0,0.5021543614395626,0.0,0.0,0.0,0.0,0.0
3.415,0.0,0.0,0.0,2.735762474592658,0.0,0.0,0.501156157596711,0.0,0.0,0.0,0.0,0.0
3.42,0.0,0.0,0.0,2.6379523243950764,0.0,0.0,0.5048133025727777,0.0,0.0,0.0,0.0,0.0
3.4250000000000003,0.0,0.0,0.0,3.231949100576115,0.0,0.0,0.49179927759302317,0.0,0.0,0.0,0.0,0.0
3.43,0.0,0.0,0.0,3.1215234534794307,0.0,0.0,0.49867551951250266,0.0,0.0,0.0,0.0,0.0
3.435,0.0,0.0,0.0,3.03921076323224,0.0,0.0,0.5107014189903359,0.0,0.0,0.0,0.0,0.0
3.44,0.0,0.0,0.0,2.9303048629052038,0.0,0.0,0.49706248208001147,0.0,0.0,0.0,0.0,0.0
3.4450000000000003,0.0,0.0,0.0,2.827052688192167,0.0,0.0,0.49185709710364045,0.0,0.0,0.0,0.0,0.0
3.45,0.0,0.0,0.0,2.8272664879645815,0.0,0.0,0.49670403887230485,0.0,0.0,0.0,0.0,0.0
3.455,0.0,0.0,0.0,2.951942095122629,0.0,0.0,0.4961151456716797,0.0,0.0,0.0,0.0,0.0
3.46,0.0,0.0,0.0,3.1414859446811536,0.0,0.0,0.5083666460715348,0.0,0.0,0.0,0.0,0.0
3.465,0.0,0.0,0.0,3.754865028273805,0.0,0.0,0.5085597380619369,0.0,0.0,0.0,0.0,0.0
3.47,0.0,0.0,0.0,2.6026513156672806,0.0,0.0,0.4854626605592644,0.0,0.0,0.0,0.0,0.0
3.475,0.0,0.0,0.0,2.932448546754853,0.0,0.0,0.48861774718328027,0.0,0.0,0.0,0.0,0.0
3.48,0.0,0.0,0.0,3.192040435028507,0.0,0.0,0.4940172461902434,0.0,0.0,0.0,0.0,0.0
3.485,0.0,0.0,0.0,3.0071642328150543,0.0,0.0,0.510128398871328,0.0,0.0,0.0,0.0,0.0
3.49,0.0,0.0,0.0,2.955565352273119,0.0,0.0,0.4901517055833068,0.0,0.0,0.0,0.0,0.0
3.495,0.0,0.0,0.0,3.4374673707838,0.0,0.0,0.49972153382036816,0.0,0.0,0.0,0.0,0.0
3.5,0.0,0.0,0.0,3.222945361065209,0.0,0.0,0.5039250230913447,0.0,0.0,0.0,0.0,0.0
3.505,0.0,0.0,0.0,2.9400487141284275,0.0,0.0,0.5000434093652978,0.0,0.0,0.0,0.0,0.0
3.5100000000000002,0.0,0.0,0.0,2.811542053403165,0.0,0.0,0.5032568988910091,0.0,0.0,0.0,0.0,0.0
3.515,0.0,0.0,0.0,3.316799502012774,0.0,0.0,0.51305823628355,0.0,0.0,0.0,0.0,0.0
3.52,0.0,0.0,0.0,3.3455093392222306,0.0,0.0,0.4978366403940085,0.0,0.0,0.0,0.0,0.0
3.525,0.0,0.0,0.0,3.061058030024325,0.0,0.0,0.49852338365958304,0.0,0.0,0.0,0.0,0.0
3.5300000000000002,0.0,0.0,0.0,3.1657880477038933,0.0,0.0,0.5004047195884286,0.0,0.0,0.0,0.0,0.0
3.535,0.0,0.0,0.0,3.0834611046158753,0.0,0.0,0.5151366870629471,0.0,0.0,0.0,0.0,0.0
3.54,0.0,0.0,0.0,2.69119343161257,0.0,0.0,0.5125475597163317,0.0,0.0,0.0,0.0,0.0
3.545,0.0,0.0,0.0,2.424568049055768,0.0,0.0,0.5007519838635861,0.0,0.0,0.0,0.0,0.0
3.5500000000000003,0.0,0.0,0.0,3.217135525919351,0.0,0.0,0.49978524540266844,0.0,0.0,0.0,0.0,0.0
3.555,0.0,0.0,0.0,3.056677702247554,0.0,0.0,0.5111804446042295,0.0,0.0,0.0,0.0,0.0
3.56,0.0,0.0,0.0,3.6120500746571076,0.0,0.0,0.5190620391076276,0.0,0.0,0.0,0.0,0.0
3.565,0.0,0.0,0.0,2.693733842095568,0.0,0.0,0.5185000677794497,0.0,0.0,0.0,0.0,0.0
3.5700000000000003,0.0,0.0,0.0,2.7511525275365085,0.0,0.0,0.504617845976474,0.0,0.0,0.0,0.0,0.0
3.575,0.0,0.0,0.0,2.7255441014194797,0.0,0.0,0.5009110350743334,0.0,0.0,0.0,0.0,0.0
3.58,0.0,0.0,0.0,2.9860755350336925,0.0,0.0,0.5195868846255286,0.0,0.0,0.0,0.0,0.0
3.585,0.0,0.0,0.0,3.0668978895876036,0.0,0.0,0.49855559084001927,0.0,0.0,0.0,0.0,0.0
3.59,0.0,0.0,0.0,3.6443930151398085,0.0,0.0,0.5193093943418401,0.0,0.0,0.0,0.0,0.0
3.595,0.0,0.0,0.0,2.910703092423982,0.0,0.0,0.4798343192321014,0.0,0.0,0.0,0.0,0.0
3.6,0.0,0.0,0.0,3.106087940091951,0.0,0.0,0.490557615341854,0.0,0.0,0.0,0.0,0.0
3.605,0.0,0.0,0.0,2.85519414414244,0.0,0.0,0.5015260683198802,0.0,0.0,0.0,0.0,0.0
3.61,0.0,0.0,0.0,3.5605440419125207,0.0,0.0,0.49229606187148844,0.0,0.0,0.0,0.0,0.0
3.615,0.0,0.0,0.0,2.7919095091095723,0.0,0.0,0.5079721522305916,0.0,0.0,0.0,0.0,0.0
3.62,0.0,0.0,0.0,3.5237449806470167,0.0,0.0,0.5089572984694409,0.0,0.0,0.0,0.0,0.0
3.625,0.0,0.0,0.0,2.919848045810573,0.0,0.0,0.5024737250827058,0.0,0.0,0.0,0.0,0.0
3.63,0.0,0.0,0.0,3.1745065157901897,0.0,0.0,0.49574532698232193,0.0,0.0,0.0,0.0,0.0
3.6350000000000002,0.0,0.0,0.0,3.2759580787136993,0.0,0.0,0.5159708328679214,0.0,0.0,0.0,0.0,0.0
3.64,0.0,0.0,0.0,3.416617050822006,0.0,0.0,0.4933234457310246,0.0,0.0,0.0,0.0,0.0
3.645,0.0,0.0,0.0,3.738785060497735,0.0,0.0,0.49916243381502384,0.0,0.0,0.0,0.0,0.0
3.65,0.0,0.0,0.0,3.305208443455178,0.0,0.0,0.5047551193057026,0.0,0.0,0.0,0.0,0.0
3.6550000000000002,0.0,0.0,0.0,3.265436871510839,0.0,0.0,0.4897824069982649,0.0,0.0,0.0,0.0,0.0
3.66,0.0,0.0,0.0,3.2049928436029718,0.0,0.0,0.5203374629170783,0.0,0.0,0.0,0.0,0.0
3.665,0.0,0.0,0.0,3.549802725754992,0.0,0.0,0.483886455682753,0.0,0.0,0.0,0.0,0.0
3.67,0.0,0.0,0.0,3.492703420930934,0.0,0.0,0.4949295979967137,0.0,0.0,0.0,0.0,0.0
3.6750000000000003,0.0,0.0,0.0,3.0667567005283414,0.0,0.0,0.4934909644481903,0.0,0.0,0.0,0.0,0.0
3.68,0.0,0.0,0.0,3.6098624074477716,0.0,0.0,0.49714569100440986,0.0,0.0,0.0,0.0,0.0
3.685,0.0,0.0,0.0,3.152706708919024,0.0,0.0,0.4992860276379645,0.0,0.0,0.0,0.0,0.0
3.69,0.0,0.0,0.0,3.0649752808050788,0.0,0.0,0.5087693376536044,0.0,0.0,0.0,0.0,0.0
3.6950000000000003,0.0,0.0,0.0,3.086780621888385,0.0,0.0,0.4952411954122088,0.0,0.0,0.0,0.0,0.0
3.7,0.0,0.0,0.0,3.5760901357697272,0.0,0.0,0.4973852865742922,0.0,0.0,0.0,0.0,0.0
3.705,0.0,0.0,0.0,3.926429594469843,0.0,0.0,0.4886759847078333,0.0,0.0,0.0,0.0,0.0
3.71,0.0,0.0,0.0,3.755634489723197,0.0,0.0,0.5017484916004333,0.0,0.0,0.0,0.0,0.0
3.715,0.0,0.0,0.0,3.9408778640698063,0.0,0.0,0.48551003795023345,0.0,0.0,0.0,0.0,0.0
3.72,0.0,0.0,0.0,3.5191493138242014,0.0,0.0,0.48834046564106337,0.0,0.0,0.0,0.0,0.0
3.725,0.0,0.0,0.0,3.6454557395340825,0.0,0.0,0.5051169234743936,0.0,0.0,0.0,0.0,0.0
3.73,0.0,0.0,0.0,3.2174236556439326,0.0,0.0,0.49151949027352426,0.0,0.0,0.0,0.0,0.0
3.735,0.0,0.0,0.0,3.2925915929930665,0.0,0.0,0.5054037437567542,0.0,0.0,0.0,0.0,0.0
3.74,0.0,0.0,0.0,3.9609144884167704,0.0,0.0,0.5031706310314457,0.0,0.0,0.0,0.0,0.0
3.745,0.0,0.0,0.0,3.4493088931793308,0.0,0.0,0.4977337767889986,0.0,0.0,0.0,0.0,0.0
3.75,0.0,0.0,0.0,3.483305723945769,0.0,0.0,0.4833976948666899,0.0,0.0,0.0,0.0,0.0
3.755,0.0,0.0,0.0,3.9370685690354366,0.0,0.0,0.5131130743965862,0.0,0.0,0.0,0.0,0.0
3.7600000000000002,0.0,0.0,0.0,3.659346677263323,0.0,0.0,0.48717369678963635,0.0,0.0,0.0,0.0,0.0
3.765,0.0,0.0,0.0,3.479430524101188,0.0,0.0,0.49545241705807125,0.0,0.0,0.0,0.0,0.0
3.77,0.0,0.0,0.0,3.6710763042070944,0.0,0.0,0.4929321156174571,0.0,0.0,0.0,0.0,0.0
3.775,0.0,0.0,0.0,3.835205825606926,0.0,0.0,0.5006853944248113,0.0,0.0,0.0,0.0,0.0
3.7800000000000002,0.0,0.0,0.0,3.799560327627169,0.0,0.0,0.5010060860705499,0.0,0.0,0.0,0.0,0.0
3.785,0.0,0.0,0.0,3.135834165726775,0.0,0.0,0.5067062793031,0.0,0.0,0.0,0.0,0.0
3.79,0.0,0.0,0.0,3.738757987214535,0.0,0.0,0.4841683114789891,0.0,0.0,0.0,0.0,0.0
3.795,0.0,0.0,0.0,3.8196413815765093,0.0,0.0,0.48348266005512003,0.0,0.0,0.0,0.0,0.0
3.8000000000000003,0.0,0.0,0.0,3.4316974529774513,0.0,0.0,0.49345499756338573,0.0,0.0,0.0,0.0,0.0
3.805,0.0,0.0,0.0,3.4514932716717253,0.0,0.0,0.5027518180713396,0.0,0.0,0.0,0.0,0.0
3.81,0.0,0.0,0.0,3.4130012864925208,0.0,0.0,0.5017910381263214,0.0,0.0,0.0,0.0,0.0
3.815,0.0,0.0,0.0,3.717637461158728,0.0,0.0,0.504183177665091,0.0,0.0,0.0,0.0,0.0
3.8200000000000003,0.0,0.0,0.0,3.252766748399315,0.0,0.0,0.4898553514714024,0.0,0.0,0.0,0.0,0.0
3.825,0.0,0.0,0.0,3.639520172996289,0.0,0.0,0.5091116878889,0.0,0.0,0.0,0.0,0.0
3.83,0.0,0.0,0.0,3.3832905953296537,0.0,0.0,0.5066805301362175,0.0,0.0,0.0,0.0,0.0
3.835,0.0,0.0,0.0,3.4745574629558797,0.0,0.0,0.4889523965830638,0.0,0.0,0.0,0.0,0.0
3.84,0.0,0.0,0.0,3.759468123387886,0.0,0.0,0.4988033850566038,0.0,0.0,0.0,0.0,0.0
3.845,0.0,0.0,0.0,3.3093256532869604,0.0,0.0,0.49617805766471984,0.0,0.0,0.0,0.0,0.0
3.85,0.0,0.0,0.0,3.973570370507333,0.0,0.0,0.4976245946237971,0.0,0.0,0.0,0.0,0.0
3.855,0.0,0.0,0.0,3.662244828196914,0.0,0.0,0.5004777828169725,0.0,0.0,0.0,0.0,0.0
3.86,0.0,0.0,0.0,3.2885634044075447,0.0,0.0,0.49406301016536247,0.0,0.0,0.0,0.0,0.0
3.865,0.0,0.0,0.0,3.712425216899256,0.0,0.0,0.5004072037775469,0.0,0.0,0.0,0.0,0.0
3.87,0.0,0.0,0.0,3.544445077693622,0.0,0.0,0.5112186866993806,0.0,0.0,0.0,0.0,0.0
3.875,0.0,0.0,0.0,3.821950290598775,0.0,0.0,0.4880582796699216,0.0,0.0,0.0,0.0,0.0
3.88,0.0,0.0,0.0,4.088400857843897,0.0,0.0,0.5042978594174042,0.0,0.0,0.0,0.0,0.0
3.8850000000000002,0.0,0.0,0.0,3.0981911654185716,0.0,0.0,0.4988844484819357,0.0,0.0,0.0,0.0,0.0
3.89,0.0,0.0,0.0,4.446531091746663,0.0,0.0,0.4988373052107665,0.0,0.0,0.0,0.0,0.0
3.895,0.0,0.0,0.0,4.394948126077143,0.0,0.0,0.4857488990038728,0.0,0.0,0.0,0.0,0.0
3.9,0.0,0.0,0.0,3.925423920716082,0.0,0.0,0.5030378378931338,0.0,0.0,0.0,0.0,0.0
3.9050000000000002,0.0,0.0,0.0,4.0809576653405575,0.0,0.0,0.5094188235112311,0.0,0.0,0.0,0.0,0.0
3.91,0.0,0.0,0.0,3.881809380930278,0.0,0.0,0.49535275425435205,0.0,0.0,0.0,0.0,0.0
3.915,0.0,0.0,0.0,3.1344397032036704,0.0,0.0,0.49052485192579903,0.0,0.0,0.0,0.0,0.0
3.92,0.0,0.0,0.0,4.283581341649848,0.0,0.0,0.4931002101345408,0.0,0.0,0.0,0.0,0.0
3.9250000000000003,0.0,0.0,0.0,4.121513096282056,0.0,0.0,0.488123465926639,0.0,0.0,0.0,0.0,0.0
3.93,0.0,0.0,0.0,4.205874173269089,0.0,0.0,0.5028378514435494,0.0,0.0,0.0,0.0,0.0
3.935,0.0,0.0,0.0,4.036874889010978,0.0,0.0,0.47777170766710947,0.0,0.0,0.0,0.0,0.0
3.94,0.0,0.0,0.0,3.8728560969865398,0.0,0.0,0.50583364148418,0.0,0.0,0.0,0.0,0.0
3.9450000000000003,0.0,0.0,0.0,3.0771047116324803,0.0,0.0,0.5005650279519553,0.0,0.0,0.0,0.0,0.0
3.95,0.0,0.0,0.0,3.8978749558345833,0.0,0.0,0.5083026083283997,0.0,0.0,0.0,0.0,0.0
3.955,0.0,0.0,0.0,3.966219785944927,0.0,0.0,0.5033812809693109,0.0,0.0,0.0,0.0,0.0
3.96,0.0,0.0,0.0,4.171085217757028,0.0,0.0,0.4851509744970027,0.0,0.0,0.0,0.0,0.0
3.9650000000000003,0.0,0.0,0.0,4.479663611054138,0.0,0.0,0.5263957664461014,0.0,0.0,0.0,0.0,0.0
3.97,0.0,0.0,0.0,3.6255050764654286,0.0,0.0,0.5087783728745776,0.0,0.0,0.0,0.0,0.0
3.975,0.0,0.0,0.0,4.148983038007089,0.0,0.0,0.4907610328385024,0.0,0.0,0.0,0.0,0.0
3.98,0.0,0.0,0.0,3.702583672212614,0.0,0.0,0.5037815978861189,0.0,0.0,0.0,0.0,0.0
3.985,0.0,0.0,0.0,3.4892986438301397,0.0,0.0,0.5034754938139271,0.0,0.0,0.0,0.0,0.0
3.99,0.0,0.0,0.0,4.049228544615148,0.0,0.0,0.4902297150361887,0.0,0.0,0.0,0.0,0.0
3.995,0.0,0.0,0.0,3.398367759867179,0.0,0.0,0.49325286381520766,0.0,0.0,0.0,0.0,0.0
4.0,0.0,0.0,0.0,4.141079730387912,0.0,0.0,0.4888837057842056,0.0,0.0,0.0,0.0,0.0
4.005,0.0,0.0,0.0,4.08010021536333,0.0,0.0,0.5005100325723526,0.0,0.0,0.0,0.0,0.0
4.01,0.0,0.0,0.0,3.5877981101428866,0.0,0.0,0.5029405556498923,0.0,0.0,0.0,0.0,0.0
4.015,0.0,0.0,0.0,4.371987542783102,0.0,0.0,0.5063889265247706,0.0,0.0,0.0,0.0,0.0
4.0200000000000005,0.0,0.0,0.0,3.5658499232811,0.0,0.0,0.5086993841324452,0.0,0.0,0.0,0.0,0.0
4.025,0.0,0.0,0.0,3.706515815408975,0.0,0.0,0.49397527578964945,0.0,0.0,0.0,0.0,0.0
4.03,0.0,0.0,0.0,3.933845389532026,0.0,0.0,0.5035234643265616,0.0,0.0,0.0,0.0,0.0
4.035,0.0,0.0,0.0,4.5797512804823945,0.0,0.0,0.4962836157171805,0.0,0.0,0.0,0.0,0.0
4.04,0.0,0.0,0.0,4.238373850460921,0.0,0.0,0.5182995482506204,0.0,0.0,0.0,0.0,0.0
4.045,0.0,0.0,0.0,4.514206561537192,0.0,0.0,0.48535911756641165,0.0,0.0,0.0,0.0,0.0
4.05,0.0,0.0,0.0,4.25023592548285,0.0,0.0,0.5096294085662217,0.0,0.0,0.0,0.0,0.0
4.055,0.0,0.0,0.0,3.752221914040801,0.0,0.0,0.49407480894473,0.0,0.0,0.0,0.0,0.0
4.0600000000000005,0.0,0.0,0.0,3.8356825094448768,0.0,0.0,0.499796343049932,0.0,0.0,0.0,0.0,0.0
4.065,0.0,0.0,0.0,4.070807903887316,0.0,0.0,0.48519229280824866,0.0,0.0,0.0,0.0,0.0
4.07,0.0,0.0,0.0,3.9994799953730387,0.0,0.0,0.5028302309102767,0.0,0.0,0.0,0.0,0.0
4.075,0.0,0.0,0.0,4.454452994257746,0.0,0.0,0.5025412401641117,0.0,0.0,0.0,0.0,0.0
4.08,0.0,0.0,0.0,4.548889260516533,0.0,0.0,0.49824460951482846,0.0,0.0,0.0,0.0,0.0
4.085,0.0,0.0,0.0,4.052456406866468,0.0,0.0,0.5069759268705928,0.0,0.0,0.0,0.0,0.0
4.09,0.0,0.0,0.0,4.697722605094857,0.0,0.0,0.49246474547868574,0.0,0.0,0.0,0.0,0.0
4.095,0.0,0.0,0.0,3.808096386750551,0.0,0.0,0.5102152736291269,0.0,0.0,0.0,0.0,0.0
4.1,0.0,0.0,0.0,4.331247266178259,0.0,0.0,0.5010118399257825,0.0,0.0,0.0,0.0,0.0
4.105,0.0,0.0,0.0,4.051257650573956,0.0,0.0,0.5019849150162249,0.0,0.0,0.0,0.0,0.0
4.11,0.0,0.0,0.0,4.306778958358976,0.0,0.0,0.5061145119519498,0.0,0.0,0.0,0.0,0.0
4.115,0.0,0.0,0.0,3.930377521361099,0.0,0.0,0.49596595185961667,0.0,0.0,0.0,0.0,0.0
4.12,0.0,0.0,0.0,3.865577327744951,0.0,0.0,0.4963768622095924,0.0,0.0,0.0,0.0,0.0
4.125,0.0,0.0,0.0,4.120665181006224,0.0,0.0,0.4974722800191734,0.0,0.0,0.0,0.0,0.0
4.13,0.0,0.0,0.0,4.9453546531275245,0.0,0.0,0.5236088823191813,0.0,0.0,0.0,0.0,0.0
4.135,0.0,0.0,0.0,4.208405127684747,0.0,0.0,0.49066700433873955,0.0,0.0,0.0,0.0,0.0
4.14,0.0,0.0,0.0,4.5548764436637805,0.0,0.0,0.5017760832046432,0.0,0.0,0.0,0.0,0.0
4.1450000000000005,0.0,0.0,0.0,4.221970587433729,0.0,0.0,0.5023925285780729,0.0,0.0,0.0,0.0,0.0
4.15,0.0,0.0,0.0,4.409174518342187,0.0,0.0,0.4926840615545817,0.0,0.0,0.0,0.0,0.0
4.155,0.0,0.0,0.0,4.485868450428789,0.0,0.0,0.5006454024471657,0.0,0.0,0.0,0.0,0.0
4.16,0.0,0.0,0.0,4.540425310743921,0.0,0.0,0.5260574784363397,0.0,0.0,0.0,0.0,0.0
4.165,0.0,0.0,0.0,4.55689788689618,0.0,0.0,0.5143729406886872,0.0,0.0,0.0,0.0,0.0
4.17,0.0,0.0,0.0,4.318515640193155,0.0,0.0,0.47347699948244243,0.0,0.0,0.0,0.0,0.0
4.175,0.0,0.0,0.0,4.603184522240747,0.0,0.0,0.48231376674432624,0.0,0.0,0.0,0.0,0.0
4.18,0.0,0.0,0.0,4.8833972507578824,0.0,0.0,0.49264849613205314,0.0,0.0,0.0,0.0,0.0
4.1850000000000005,0.0,0.0,0.0,4.310117723650317,0.0,0.0,0.5017647120388113,0.0,0.0,0.0,0.0,0.0
4.19,0.0,0.0,0.0,4.018323092307801,0.0,0.0,0.501625276343269,0.0,0.0,0.0,0.0,0.0
4.195,0.0,0.0,0.0,4.741808380856354,0.0,0.0,0.5195812254130909,0.0,0.0,0.0,0.0,0.0
4.2,0.0,0.0,0.0,4.241521625085124,0.0,0.0,0.48454684905283296,0.0,0.0,0.0,0.0,0.0
4.205,0.0,0.0,0.0,4.63300977327123,0.0,0.0,0.5145713305913848,0.0,0.0,0.0,0.0,0.0
4.21,0.0,0.0,0.0,4.682787669126319,0.0,0.0,0.5136000626542225,0.0,0.0,0.0,0.0,0.0
4.215,0.0,0.0,0.0,4.5429432347791865,0.0,0.0,0.4908697057345082,0.0,0.0,0.0,0.0,0.0
4.22,0.0,0.0,0.0,4.869867452724014,0.0,0.0,0.5097551638053731,0.0,0.0,0.0,0.0,0.0
4.225,0.0,0.0,0.0,5.472700131891445,0.0,0.0,0.5021406724838376,0.0,0.0,0.0,0.0,0.0
4.23,0.0,0.0,0.0,4.004986643822866,0.0,0.0,0.4935553333650901,0.0,0.0,0.0,0.0,0.0
4.235,0.0,0.0,0.0,4.3207958940257445,0.0,0.0,0.4926788464075221,0.0,0.0,0.0,0.0,0.0
4.24,0.0,0.0,0.0,3.9701223294401253,0.0,0.0,0.49815157773722557,0.0,0.0,0.0,0.0,0.0
4.245,0.0,0.0,0.0,4.559030932335929,0.0,0.0,0.4994096945674827,0.0,0.0,0.0,0.0,0.0
4.25,0.0,0.0,0.0,4.103694465109907,0.0,0.0,0.4902830239089985,0.0,0.0,0.0,0.0,0.0
4.255,0.0,0.0,0.0,4.576802098235706,0.0,0.0,0.4992659969069138,0.0,0.0,0.0,0.0,0.0
4.26,0.0,0.0,0.0,4.39273037194986,0.0,0.0,0.5124094586750271,0.0,0.0,0.0,0.0,0.0
4.265,0.0,0.0,0.0,4.388471682593669,0.0,0.0,0.49505822520845194,0.0,0.0,0.0,0.0,0.0
4.2700000000000005,0.0,0.0,0.0,4.336603189066996,0.0,0.0,0.47490628606806295,0.0,0.0,0.0,0.0,0.0
4.275,0.0,0.0,0.0,4.687562649139346,0.0,0.0,0.4894673290791547,0.0,0.0,0.0,0.0,0.0
4.28,0.0,0.0,0.0,5.041143103625911,0.0,0.0,0.49120953045196525,0.0,0.0,0.0,0.0,0.0
4.285,0.0,0.0,0.0,4.299087715289077,0.0,0.0,0.49515460049378124,0.0,0.0,0.0,0.0,0.0
4.29,0.0,0.0,0.0,4.138650174178969,0.0,0.0,0.5097334414828258,0.0,0.0,0.0,0.0,0.0
4.295,0.0,0.0,0.0,5.185294362893148,0.0,0.0,0.5059715855705731,0.0,0.0,0.0,0.0,0.0
4.3,0.0,0.0,0.0,4.521964282583037,0.0,0.0,0.4864661270605809,0.0,0.0,0.0,0.0,0.0
4.305,0.0,0.0,0.0,4.484481803413777,0.0,0.0,0.48999966784794624,0.0,0.0,0.0,0.0,0.0
4.3100000000000005,0.0,0.0,0.0,4.877621844014895,0.0,0.0,0.4898533579850167,0.0,0.0,0.0,0.0,0.0
4.315,0.0,0.0,0.0,4.921103011897863,0.0,0.0,0.5127798987338121,0.0,0.0,0.0,0.0,0.0
4.32,0.0,0.0,0.0,4.656329923245704,0.0,0.0,0.5124357945488198,0.0,0.0,0.0,0.0,0.0
4.325,0.0,0.0,0.0,4.182177926291083,0.0,0.0,0.5198735114731068,0.0,0.0,0.0,0.0,0.0
4.33,0.0,0.0,0.0,4.629952668783006,0.0,0.0,0.4997333604944194,0.0,0.0,0.0,0.0,0.0
4.335,0.0,0.0,0.0,4.586936376597758,0.0,0.0,0.48853613245664224,0.0,0.0,0.0,0.0,0.0
4.34,0.0,0.0,0.0,4.361008705755657,0.0,0.0,0.5012201982724662,0.0,0.0,0.0,0.0,0.0
4.345,0.0,0.0,0.0,4.685973158102591,0.0,0.0,0.4922942395001309,0.0,0.0,0.0,0.0,0.0
4.3500000000000005,0.0,0.0,0.0,4.53376959585202,0.0,0.0,0.503180176806111,0.0,0.0,0.0,0.0,0.0
4.355,0.0,0.0,0.0,5.111724011245368,0.0,0.0,0.48927168036291785,0.0,0.0,0.0,0.0,0.0
4.36,0.0,0.0,0.0,4.538647493892094,0.0,0.0,0.4754669744247934,0.0,0.0,0.0,0.0,0.0
4.365,0.0,0.0,0.0,4.6357365772924,0.0,0.0,0.4918610828786853,0.0,0.0,0.0,0.0,0.0
4.37,0.0,0.0,0.0,4.454461782741874,0.0,0.0,0.5131409018577155,0.0,0.0,0.0,0.0,0.0
4.375,0.0,0.0,0.0,4.556966313619526,0.0,0.0,0.4860741415075033,0.0,0.0,0.0,0.0,0.0
4.38,0.0,0.0,0.0,4.356845573152698,0.0,0.0,0.5005892068415624,0.0,0.0,0.0,0.0,0.0
4.385,0.0,0.0,0.0,4.88848768681165,0.0,0.0,0.5006875558659435,0.0,0.0,0.0,0.0,0.0
4.39,0.0,0.0,0.0,4.585155567895679,0.0,0.0,0.4867312573536126,0.0,0.0,0.0,0.0,0.0
4.3950000000000005,0.0,0.0,0.0,4.873813082963563,0.0,0.0,0.4886451960843716,0.0,0.0,0.0,0.0,0.0
4.4,0.0,0.0,0.0,4.935134633944518,0.0,0.0,0.5027099819293751,0.0,0.0,0.0,0.0,0.0
4.405,0.0,0.0,0.0,4.900700961003652,0.0,0.0,0.4834071182178496,0.0,0.0,0.0,0.0,0.0
4.41,0.0,0.0,0.0,4.908508130000789,0.0,0.0,0.4934181420953092,0.0,0.0,0.0,0.0,0.0
4.415,0.0,0.0,0.0,5.017715233548599,0.0,0.0,0.49598858008162505,0.0,0.0,0.0,0.0,0.0
4.42,0.0,0.0,0.0,4.555557647704273,0.0,0.0,0.4961604587006268,0.0,0.0,0.0,0.0,0.0
4.425,0.0,0.0,0.0,4.92556854804127,0.0,0.0,0.495531145566484,0.0,0.0,0.0,0.0,0.0
4.43,0.0,0.0,0.0,4.812447314824406,0.0,0.0,0.47928465769721756,0.0,0.0,0.0,0.0,0.0
4.4350000000000005,0.0,0.0,0.0,5.57917339144325,0.0,0.0,0.5094056755621339,0.0,0.0,0.0,0.0,0.0
4.44,0.0,0.0,0.0,5.106220729857039,0.0,0.0,0.50854555442558,0.0,0.0,0.0,0.0,0.0
4.445,0.0,0.0,0.0,4.531706540530361,0.0,0.0,0.4891654609399827,0.0,0.0,0.0,0.0,0.0
4.45,0.0,0.0,0.0,4.7341982255029,0.0,0.0,0.502564608076924,0.0,0.0,0.0,0.0,0.0
4.455,0.0,0.0,0.0,5.69003939724198,0.0,0.0,0.4882877593076459,0.0,0.0,0.0,0.0,0.0
4.46,0.0,0.0,0.0,5.298546111328856,0.0,0.0,0.4892898849508191,0.0,0.0,0.0,0.0,0.0
4.465,0.0,0.0,0.0,5.423867449671877,0.0,0.0,0.5028351892346148,0.0,0.0,0.0,0.0,0.0
4.47,0.0,0.0,0.0,5.059356317252061,0.0,0.0,0.4957613497641069,0.0,0.0,0.0,0.0,0.0
4.4750000000000005,0.0,0.0,0.0,5.3979095724044255,0.0,0.0,0.485465491634588,0.0,0.0,0.0,0.0,0.0
4.48,0.0,0.0,0.0,5.173288921714724,0.0,0.0,0.4995473900874015,0.0,0.0,0.0,0.0,0.0
4.485,0.0,0.0,0.0,5.050080544188572,0.0,0.0,0.4972154363599786,0.0,0.0,0.0,0.0,0.0
4.49,0.0,0.0,0.0,5.530265395606353,0.0,0.0,0.49229853130297996,0.0,0.0,0.0,0.0,0.0
4.495,0.0,0.0,0.0,5.117763450559365,0.0,0.0,0.48077919398109104,0.0,0.0,0.0,0.0,0.0
4.5,0.0,0.0,0.0,5.579043227478272,0.0,0.0,0.4751800919938084,0.0,0.0,0.0,0.0,0.0
4.505,0.0,0.0,0.0,5.240482960137401,0.0,0.0,0.4993220787826094,0.0,0.0,0.0,0.0,0.0
4.51,0.0,0.0,0.0,5.081027177317355,0.0,0.0,0.48445946504634974,0.0,0.0,0.0,0.0,0.0
4.515,0.0,0.0,0.0,5.120479093354658,0.0,0.0,0.48420126320678597,0.0,0.0,0.0,0.0,0.0
4.5200000000000005,0.0,0.0,0.0,5.0100243901681285,0.0,0.0,0.49290400947092766,0.0,0.0,0.0,0.0,0.0
4.525,0.0,0.0,0.0,4.8504847321523235,0.0,0.0,0.5075239826123783,0.0,0.0,0.0,0.0,0.0
4.53,0.0,0.0,0.0,5.31216710742791,0.0,0.0,0.5179598539226385,0.0,0.0,0.0,0.0,0.0
4.535,0.0,0.0,0.0,5.4726977900009395,0.0,0.0,0.5114623424196337,0.0,0.0,0.0,0.0,0.0
4.54,0.0,0.0,0.0,4.912527061686304,0.0,0.0,0.48510567524201614,0.0,0.0,0.0,0.0,0.0
4.545,0.0,0.0,0.0,5.504976326449403,0.0,0.0,0.4916550522232627,0.0,0.0,0.0,0.0,0.0
4.55,0.0,0.0,0.0,4.88972517511096,0.0,0.0,0.5025326398910382,0.0,0.0,0.0,0.0,0.0
4.555,0.0,0.0,0.0,5.231023326260478,0.0,0.0,0.5068083646381257,0.0,0.0,0.0,0.0,0.0
4.5600000000000005,0.0,0.0,0.0,5.221250117215433,0.0,0.0,0.5025983054072687,0.0,0.0,0.0,0.0,0.0
4.565,0.0,0.0,0.0,4.9821695067728875,0.0,0.0,0.4907745713842561,0.0,0.0,0.0,0.0,0.0
4.57,0.0,0.0,0.0,5.458982904538937,0.0,0.0,0.49057678193326776,0.0,0.0,0.0,0.0,0.0
4.575,0.0,0.0,0.0,5.387159910019804,0.0,0.0,0.5081309813871931,0.0,0.0,0.0,0.0,0.0
4.58,0.0,0.0,0.0,5.2457514791438085,0.0,0.0,0.5091178160250834,0.0,0.0,0.0,0.0,0.0
4.585,0.0,0.0,0.0,5.628213407292032,0.0,0.0,0.4976728485745969,0.0,0.0,0.0,0.0,0.0
4.59,0.0,0.0,0.0,5.272932117124113,0.0,0.0,0.49477275545971705,0.0,0.0,0.0,0.0,0.0
4.595,0.0,0.0,0.0,4.667365948247288,0.0,0.0,0.49127679210943076,0.0,0.0,0.0,0.0,0.0
4.6000000000000005,0.0,0.0,0.0,5.417037202328241,0.0,0.0,0.49815968390530596,0.0,0.0,0.0,0.0,0.0
4.605,0.0,0.0,0.0,4.890661052258573,0.0,0.0,0.489624591036489,0.0,0.0,0.0,0.0,0.0
4.61,0.0,0.0,0.0,5.157791563116369,0.0,0.0,0.4957566517813607,0.0,0.0,0.0,0.0,0.0
4.615,0.0,0.0,0.0,6.333717603790889,0.0,0.0,0.5063896605457828,0.0,0.0,0.0,0.0,0.0
4.62,0.0,0.0,0.0,5.366794107913409,0.0,0.0,0.5190518053581559,0.0,0.0,0.0,0.0,0.0
4.625,0.0,0.0,0.0,4.990894374333975,0.0,0.0,0.4927086857764004,0.0,0.0,0.0,0.0,0.0
4.63,0.0,0.0,0.0,5.647071013784729,0.0,0.0,0.5068574066658672,0.0,0.0,0.0,0.0,0.0
4.635,0.0,0.0,0.0,6.1618922559302876,0.0,0.0,0.5025592608796743,0.0,0.0,0.0,0.0,0.0
4.64,0.0,0.0,0.0,4.554287569832683,0.0,0.0,0.5150447541669284,0.0,0.0,0.0,0.0,0.0
4.6450000000000005,0.0,0.0,0.0,5.144442357327049,0.0,0.0,0.5162654420107283,0.0,0.0,0.0,0.0,0.0
4.65,0.0,0.0,0.0,5.373844210691193,0.0,0.0,0.5080646392792543,0.0,0.0,0.0,0.0,0.0
4.655,0.0,0.0,0.0,4.865937005542528,0.0,0.0,0.49918453971301235,0.0,0.0,0.0,0.0,0.0
4.66,0.0,0.0,0.0,5.124685717883695,0.0,0.0,0.4960708819003804,0.0,0.0,0.0,0.0,0.0
4.665,0.0,0.0,0.0,5.3645371423926145,0.0,0.0,0.5158011469463001,0.0,0.0,0.0,0.0,0.0
4.67,0.0,0.0,0.0,5.385223855522713,0.0,0.0,0.49271093212772316,0.0,0.0,0.0,0.0,0.0
4.675,0.0,0.0,0.0,5.635547415931221,0.0,0.0,0.4903685712369711,0.0,0.0,0.0,0.0,0.0
4.68,0.0,0.0,0.0,6.085841547874762,0.0,0.0,0.5011331515319254,0.0,0.0,0.0,0.0,0.0
4.6850000000000005,0.0,0.0,0.0,5.483078239835842,0.0,0.0,0.48587170005017377,0.0,0.0,0.0,0.0,0.0
4.69,0.0,0.0,0.0,5.823717965804831,0.0,0.0,0.5003119788769262,0.0,0.0,0.0,0.0,0.0
4.695,0.0,0.0,0.0,5.008313811588395,0.0,0.0,0.5175799465896576,0.0,0.0,0.0,0.0,0.0
4.7,0.0,0.0,0.0,5.1604577725843885,0.0,0.0,0.5139065207901913,0.0,0.0,0.0,0.0,0.0
4.705,0.0,0.0,0.0,6.299872079146002,0.0,0.0,0.48956413245606045,0.0,0.0,0.0,0.0,0.0
4.71,0.0,0.0,0.0,5.044743616810229,0.0,0.0,0.5027546819897443,0.0,0.0,0.0,0.0,0.0
4.715,0.0,0.0,0.0,5.623496260642905,0.0,0.0,0.49325643970599664,0.0,0.0,0.0,0.0,0.0
4.72,0.0,0.0,0.0,5.787484188097802,0.0,0.0,0.5177538854411992,0.0,0.0,0.0,0.0,0.0
4.7250000000000005,0.0,0.0,0.0,5.263591869437625,0.0,0.0,0.5056784727968113,0.0,0.0,0.0,0.0,0.0
4.73,0.0,0.0,0.0,6.012429314150804,0.0,0.0,0.5054040499213412,0.0,0.0,0.0,0.0,0.0
4.735,0.0,0.0,0.0,5.907906053229413,0.0,0.0,0.4930281541013566,0.0,0.0,0.0,0.0,0.0
4.74,0.0,0.0,0.0,6.139737293579549,0.0,0.0,0.49146920876890304,0.0,0.0,0.0,0.0,0.0
4.745,0.0,0.0,0.0,5.516522505431162,0.0,0.0,0.49540284861461836,0.0,0.0,0.0,0.0,0.0
4.75,0.0,0.0,0.0,5.61075456956489,0.0,0.0,0.5003252394424982,0.0,0.0,0.0,0.0,0.0
4.755,0.0,0.0,0.0,5.1049075473435925,0.0,0.0,0.5086725009531237,0.0,0.0,0.0,0.0,0.0
4.76,0.0,0.0,0.0,5.704676983308809,0.0,0.0,0.5070409451474304,0.0,0.0,0.0,0.0,0.0
4.765,0.0,0.0,0.0,5.820522535598986,0.0,0.0,0.5027914637423434,0.0,0.0,0.0,0.0,0.0
4.7700000000000005,0.0,0.0,0.0,5.845693689607432,0.0,0.0,0.49446473808074265,0.0,0.0,0.0,0.0,0.0
4.775,0.0,0.0,0.0,6.180640512952328,0.0,0.0,0.47940616541564257,0.0,0.0,0.0,0.0,0.0
4.78,0.0,0.0,0.0,5.542853290016847,0.0,0.0,0.5064413562299115,0.0,0.0,0.0,0.0,0.0
4.785,0.0,0.0,0.0,5.606992488797154,0.0,0.0,0.49931587364993657,0.0,0.0,0.0,0.0,0.0
4.79,0.0,0.0,0.0,5.182290686729576,0.0,0.0,0.4977356301300736,0.0,0.0,0.0,0.0,0.0
4.795,0.0,0.0,0.0,5.73854540830598,0.0,0.0,0.48291455255882776,0.0,0.0,0.0,0.0,0.0
4.8,0.0,0.0,0.0,5.70305104227286,0.0,0.0,0.5122130836927644,0.0,0.0,0.0,0.0,0.0
4.805,0.0,0.0,0.0,5.802376254532413,0.0,0.0,0.5102957631289395,0.0,0.0,0.0,0.0,0.0
4.8100000000000005,0.0,0.0,0.0,6.1580471958741,0.0,0.0,0.4977746550881382,0.0,0.0,0.0,0.0,0.0
4.815,0.0,0.0,0.0,5.509383115504092,0.0,0.0,0.5079754528402658,0.0,0.0,0.0,0.0,0.0
4.82,0.0,0.0,0.0,5.624013176768502,0.0,0.0,0.5113183572619433,0.0,0.0,0.0,0.0,0.0
4.825,0.0,0.0,0.0,5.205787386247467,0.0,0.0,0.5208051182354769,0.0,0.0,0.0,0.0,0.0
4.83,0.0,0.0,0.0,6.167200192487043,0.0,0.0,0.49500403151198846,0.0,0.0,0.0,0.0,0.0
4.835,0.0,0.0,0.0,5.969823840838855,0.0,0.0,0.5017332857917586,0.0,0.0,0.0,0.0,0.0
4.84,0.0,0.0,0.0,6.160890482083289,0.0,0.0,0.527826385700632,0.0,0.0,0.0,0.0,0.0
4.845,0.0,0.0,0.0,6.361914298595777,0.0,0.0,0.49510524925786337,0.0,0.0,0.0,0.0,0.0
4.8500000000000005,0.0,0.0,0.0,5.6431359469212685,0.0,0.0,0.5028623640403515,0.0,0.0,0.0,0.0,0.0
4.855,0.0,0.0,0.0,6.392919386454457,0.0,0.0,0.48744592207619974,0.0,0.0,0.0,0.0,0.0
4.86,0.0,0.0,0.0,5.703801450671797,0.0,0.0,0.48853097385276145,0.0,0.0,0.0,0.0,0.0
4.865,0.0,0.0,0.0,5.776011577152419,0.0,0.0,0.49554413191968844,0.0,0.0,0.0,0.0,0.0
4.87,0.0,0.0,0.0,6.145076891147491,0.0,0.0,0.4946081828375875,0.0,0.0,0.0,0.0,0.0
4.875,0.0,0.0,0.0,5.555077908193211,0.0,0.0,0.5065166985407119,0.0,0.0,0.0,0.0,0.0
4.88,0.0,0.0,0.0,5.993932359699664,0.0,0.0,0.49904122162831377,0.0,0.0,0.0,0.0,0.0
4.885,0.0,0.0,0.0,7.038845379921797,0.0,0.0,0.4844261223537583,0.0,0.0,0.0,0.0,0.0
4.89,0.0,0.0,0.0,5.5579929803195425,0.0,0.0,0.4926406315312514,0.0,0.0,0.0,0.0,0.0
4.8950000000000005,0.0,0.0,0.0,6.320625590910757,0.0,0.0,0.487563174904983,0.0,0.0,0.0,0.0,0.0
4.9,0.0,0.0,0.0,5.698831408525927,0.0,0.0,0.5091059089592399,0.0,0.0,0.0,0.0,0.0
4.905,0.0,0.0,0.0,6.167649666102139,0.0,0.0,0.4998246865541862,0.0,0.0,0.0,0.0,0.0
4.91,0.0,0.0,0.0,6.666749685335803,0.0,0.0,0.4811175563232893,0.0,0.0,0.0,0.0,0.0
4.915,0.0,0.0,0.0,6.100863155161049,0.0,0.0,0.4880213777447559,0.0,0.0,0.0,0.0,0.0
4.92,0.0,0.0,0.0,6.273466871158612,0.0,0.0,0.5065537461311752,0.0,0.0,0.0,0.0,0.0
4.925,0.0,0.0,0.0,6.274674392312388,0.0,0.0,0.5049125171917097,0.0,0.0,0.0,0.0,0.0
4.93,0.0,0.0,0.0,5.717849924538151,0.0,0.0,0.5130927950322832,0.0,0.0,0.0,0.0,0.0
4.9350000000000005,0.0,0.0,0.0,5.574201535000914,0.0,0.0,0.49900860851380363,0.0,0.0,0.0,0.0,0.0
4.94,0.0,0.0,0.0,5.393919536205209,0.0,0.0,0.48934336692580765,0.0,0.0,0.0,0.0,0.0
4.945,0.0,0.0,0.0,5.631860443109588,0.0,0.0,0.4796970324175221,0.0,0.0,0.0,0.0,0.0
4.95,0.0,0.0,0.0,6.066492562018212,0.0,0.0,0.4993913331986271,0.0,0.0,0.0,0.0,0.0
4.955,0.0,0.0,0.0,6.2812129567473205,0.0,0.0,0.512030857233715,0.0,0.0,0.0,0.0,0.0
4.96,0.0,0.0,0.0,6.312136949664589,0.0,0.0,0.48248741281750157,0.0,0.0,0.0,0.0,0.0
4.965,0.0,0.0,0.0,6.196968624221735,0.0,0.0,0.5008524237975103,0.0,0.0,0.0,0.0,0.0
4.97,0.0,0.0,0.0,6.166110581880317,0.0,0.0,0.4963293602384883,0.0,0.0,0.0,0.0,0.0
4.9750000000000005,0.0,0.0,0.0,6.002410625613013,0.0,0.0,0.5041800470717237,0.0,0.0,0.0,0.0,0.0
4.98,0.0,0.0,0.0,5.951622264628585,0.0,0.0,0.5046569399496122,0.0,0.0,0.0,0.0,0.0
4.985,0.0,0.0,0.0,6.421744905973516,0.0,0.0,0.5109376720207314,0.0,0.0,0.0,0.0,0.0
4.99,0.0,0.0,0.0,6.256106193214576,0.0,0.0,0.5013819289953969,0.0,0.0,0.0,0.0,0.0
4.995,0.0,0.0,0.0,6.114325609181189,0.0,0.0,0.48214195941770127,0.0,0.0,0.0,0.0,0.0
5.0,0.0,0.0,0.0,6.240345148339167,0.0,0.0,0.4915692225681562,0.0,0.0,0.0,0.0,0.0
5.005,0.0,0.0,0.0,6.623962754062406,0.0,0.0,0.5065714725948146,0.0,0.0,0.0,0.0,0.0
5.01,0.0,0.0,0.0,6.3041626627469975,0.0,0.0,0.5038592608291701,0.0,0.0,0.0,0.0,0.0
5.015,0.0,0.0,0.0,6.295956534779305,0.0,0.0,0.5080736976395388,0.0,0.0,0.0,0.0,0.0
5.0200000000000005,0.0,0.0,0.0,6.308414382620447,0.0,0.0,0.4884930847282419,0.0,0.0,0.0,0.0,0.0
5.025,0.0,0.0,0.0,6.172482297495202,0.0,0.0,0.5103092758984558,0.0,0.0,0.0,0.0,0.0
5.03,0.0,0.0,0.0,6.520960955536566,0.0,0.0,0.5075128499869811,0.0,0.0,0.0,0.0,0.0
5.035,0.0,0.0,0.0,5.5312028851559525,0.0,0.0,0.49785940844962145,0.0,0.0,0.0,0.0,0.0
5.04,0.0,0.0,0.0,6.03858214137173,0.0,0.0,0.4950011057568479,0.0,0.0,0.0,0.0,0.0
5.045,0.0,0.0,0.0,5.994073844253111,0.0,0.0,0.49646256942395667,0.0,0.0,0.0,0.0,0.0
5.05,0.0,0.0,0.0,5.752502117779259,0.0,0.0,0.4919110404901095,0.0,0.0,0.0,0.0,0.0
5.055,0.0,0.0,0.0,6.247053535121387,0.0,0.0,0.49265943569538967,0.0,0.0,0.0,0.0,0.0
5.0600000000000005,0.0,0.0,0.0,6.350237172746377,0.0,0.0,0.5029614844876499,0.0,0.0,0.0,0.0,0.0
5.065,0.0,0.0,0.0,6.572876949324069,0.0,0.0,0.5004901440703636,0.0,0.0,0.0,0.0,0.0
5.07,0.0,0.0,0.0,6.233863055822743,0.0,0.0,0.5144060250737954,0.0,0.0,0.0,0.0,0.0
5.075,0.0,0.0,0.0,6.624043784082592,0.0,0.0,0.49514644183645856,0.0,0.0,0.0,0.0,0.0
5.08,0.0,0.0,0.0,6.476658639203977,0.0,0.0,0.4963361167298991,0.0,0.0,0.0,0.0,0.0
5.085,0.0,0.0,0.0,6.082835109958716,0.0,0.0,0.5011537120378368,0.0,0.0,0.0,0.0,0.0
5.09,0.0,0.0,0.0,6.228688527558797,0.0,0.0,0.5128793031722864,0.0,0.0,0.0,0.0,0.0
5.095,0.0,0.0,0.0,6.493781131001148,0.0,0.0,0.5008295656489886,0.0,0.0,0.0,0.0,0.0
5.1000000000000005,0.0,0.0,0.0,6.379049512354314,0.0,0.0,0.4978169316459047,0.0,0.0,0.0,0.0,0.0
5.105,0.0,0.0,0.0,6.400366242111236,0.0,0.0,0.524571002414955,0.0,0.0,0.0,0.0,0.0
5.11,0.0,0.0,0.0,6.522979979809122,0.0,0.0,0.5053348827643098,0.0,0.0,0.0,0.0,0.0
5.115,0.0,0.0,0.0,6.670622748370748,0.0,0.0,0.5031242099829227,0.0,0.0,0.0,0.0,0.0
5.12,0.0,0.0,0.0,6.920206015376916,0.0,0.0,0.5154571769851772,0.0,0.0,0.0,0.0,0.0
5.125,0.0,0.0,0.0,6.857448192414951,0.0,0.0,0.5015457731465974,0.0,0.0,0.0,0.0,0.0
5.13,0.0,0.0,0.0,6.85548853426899,0.0,0.0,0.5244561810245205,0.0,0.0,0.0,0.0,0.0
5.135,0.0,0.0,0.0,5.980724670763313,0.0,0.0,0.47654016323765586,0.0,0.0,0.0,0.0,0.0
5.14,0.0,0.0,0.0,6.882736640929086,0.0,0.0,0.4863009728555303,0.0,0.0,0.0,0.0,0.0
5.1450000000000005,0.0,0.0,0.0,6.781986749545288,0.0,0.0,0.4892111488187981,0.0,0.0,0.0,0.0,0.0
5.15,0.0,0.0,0.0,6.349784071784538,0.0,0.0,0.4947372076951243,0.0,0.0,0.0,0.0,0.0
5.155,0.0,0.0,0.0,6.029285597211979,0.0,0.0,0.5001708447670237,0.0,0.0,0.0,0.0,0.0
5.16,0.0,0.0,0.0,6.907040393524086,0.0,0.0,0.495643687288905,0.0,0.0,0.0,0.0,0.0
5.165,0.0,0.0,0.0,6.833581478944819,0.0,0.0,0.49277001098372775,0.0,0.0,0.0,0.0,0.0
5.17,0.0,0.0,0.0,6.464102798215517,0.0,0.0,0.504154825507365,0.0,0.0,0.0,0.0,0.0
5.175,0.0,0.0,0.0,7.002146702189674,0.0,0.0,0.500489564332233,0.0,0.0,0.0,0.0,0.0
5.18,0.0,0.0,0.0,6.599346249179944,0.0,0.0,0.49105463936375005,0.0,0.0,0.0,0.0,0.0
5.1850000000000005,0.0,0.0,0.0,6.796361249638087,0.0,0.0,0.4947991517984929,0.0,0.0,0.0,0.0,0.0
5.19,0.0,0.0,0.0,6.511328834147414,0.0,0.0,0.501879853592258,0.0,0.0,0.0,0.0,0.0
5.195,0.0,0.0,0.0,7.390992848052537,0.0,0.0,0.5086211164062829,0.0,0.0,0.0,0.0,0.0
5.2,0.0,0.0,0.0,6.295829638141096,0.0,0.0,0.5047546560377234,0.0,0.0,0.0,0.0,0.0
5.205,0.0,0.0,0.0,6.719644683484287,0.0,0.0,0.49315645989795465,0.0,0.0,0.0,0.0,0.0
5.21,0.0,0.0,0.0,6.452145082999476,0.0,0.0,0.4938869323001396,0.0,0.0,0.0,0.0,0.0
5.215,0.0,0.0,0.0,6.662436474385466,0.0,0.0,0.5107374734701474,0.0,0.0,0.0,0.0,0.0
5.22,0.0,0.0,0.0,6.537311589842604,0.0,0.0,0.505519740590324,0.0,0.0,0.0,0.0,0.0
5.2250000000000005,0.0,0.0,0.0,6.486715532785171,0.0,0.0,0.48561149267224035,0.0,0.0,0.0,0.0,0.0
5.23,0.0,0.0,0.0,6.701883806806589,0.0,0.0,0.49282361363189214,0.0,0.0,0.0,0.0,0.0
5.235,0.0,0.0,0.0,6.877645963306292,0.0,0.0,0.5048544538363786,0.0,0.0,0.0,0.0,0.0
5.24,0.0,0.0,0.0,6.399982055499716,0.0,0.0,0.5081055110207107,0.0,0.0,0.0,0.0,0.0
5.245,0.0,0.0,0.0,6.412506837056985,0.0,0.0,0.490101882760733,0.0,0.0,0.0,0.0,0.0
5.25,0.0,0.0,0.0,7.081447133393368,0.0,0.0,0.5044378450541152,0.0,0.0,0.0,0.0,0.0
5.255,0.0,0.0,0.0,7.123361683993139,0.0,0.0,0.502905653765405,0.0,0.0,0.0,0.0,0.0
5.26,0.0,0.0,0.0,6.964661672859595,0.0,0.0,0.4921223686473747,0.0,0.0,0.0,0.0,0.0
5.265,0.0,0.0,0.0,6.707599895231009,0.0,0.0,0.49187138865296887,0.0,0.0,0.0,0.0,0.0
5.2700000000000005,0.0,0.0,0.0,7.195432437509561,0.0,0.0,0.4920319504856858,0.0,0.0,0.0,0.0,0.0
5.275,0.0,0.0,0.0,6.794115020546884,0.0,0.0,0.4969376033550124,0.0,0.0,0.0,0.0,0.0
5.28,0.0,0.0,0.0,7.115223010982851,0.0,0.0,0.49906295938415335,0.0,0.0,0.0,0.0,0.0
5.285,0.0,0.0,0.0,7.244619681531912,0.0,0.0,0.5012367007983272,0.0,0.0,0.0,0.0,0.0
5.29,0.0,0.0,0.0,7.10315781329217,0.0,0.0,0.4988730255464098,0.0,0.0,0.0,0.0,0.0
5.295,0.0,0.0,0.0,6.833495202186132,0.0,0.0,0.4847940840016989,0.0,0.0,0.0,0.0,0.0
5.3,0.0,0.0,0.0,7.017167651083564,0.0,0.0,0.48861210978610614,0.0,0.0,0.0,0.0,0.0
5.305,0.0,0.0,0.0,7.276461358645011,0.0,0.0,0.49486311851161235,0.0,0.0,0.0,0.0,0.0
5.3100000000000005,0.0,0.0,0.0,6.8787871241393015,0.0,0.0,0.48505019197130056,0.0,0.0,0.0,0.0,0.0
5.315,0.0,0.0,0.0,7.072781921595683,0.0,0.0,0.5023751639405406,0.0,0.0,0.0,0.0,0.0
5.32,0.0,0.0,0.0,6.969693499395926,0.0,0.0,0.5054433173915698,0.0,0.0,0.0,0.0,0.0
5.325,0.0,0.0,0.0,7.141680939030393,0.0,0.0,0.497437802152124,0.0,0.0,0.0,0.0,0.0
5.33,0.0,0.0,0.0,6.908157745695895,0.0,0.0,0.5140393007433883,0.0,0.0,0.0,0.0,0.0
5.335,0.0,0.0,0.0,7.045902289020812,0.0,0.0,0.5131427189995466,0.0,0.0,0.0,0.0,0.0
5.34,0.0,0.0,0.0,6.825802992955203,0.0,0.0,0.5045974942050703,0.0,0.0,0.0,0.0,0.0
5.345,0.0,0.0,0.0,7.2120744361232765,0.0,0.0,0.4908379116755854,0.0,0.0,0.0,0.0,0.0
5.3500000000000005,0.0,0.0,0.0,6.964466525519809,0.0,0.0,0.502958146485697,0.0,0.0,0.0,0.0,0.0
5.355,0.0,0.0,0.0,7.936698409765648,0.0,0.0,0.5138300671171471,0.0,0.0,0.0,0.0,0.0
5.36,0.0,0.0,0.0,6.674628814574745,0.0,0.0,0.5026584532179545,0.0,0.0,0.0,0.0,0.0
5.365,0.0,0.0,0.0,6.934565958666806,0.0,0.0,0.5097864585682761,0.0,0.0,0.0,0.0,0.0
5.37,0.0,0.0,0.0,6.822314439208461,0.0,0.0,0.514169721201509,0.0,0.0,0.0,0.0,0.0
5.375,0.0,0.0,0.0,7.02247907745469,0.0,0.0,0.49113652354035864,0.0,0.0,0.0,0.0,0.0
5.38,0.0,0.0,0.0,7.830948779951969,0.0,0.0,0.4889916404248881,0.0,0.0,0.0,0.0,0.0
5.385,0.0,0.0,0.0,7.165220504015406,0.0,0.0,0.5087884308853456,0.0,0.0,0.0,0.0,0.0
5.39,0.0,0.0,0.0,7.238497349785343,0.0,0.0,0.5216285114016307,0.0,0.0,0.0,0.0,0.0
5.3950000000000005,0.0,0.0,0.0,7.266844646957032,0.0,0.0,0.5074425482133776,0.0,0.0,0.0,0.0,0.0
5.4,0.0,0.0,0.0,7.421116680915191,0.0,0.0,0.504600913916741,0.0,0.0,0.0,0.0,0.0
5.405,0.0,0.0,0.0,7.552279409090535,0.0,0.0,0.5058298326892359,0.0,0.0,0.0,0.0,0.0
5.41,0.0,0.0,0.0,7.505608462330496,0.0,0.0,0.5206631846792558,0.0,0.0,0.0,0.0,0.0
5.415,0.0,0.0,0.0,6.645512907713676,0.0,0.0,0.5011742601255713,0.0,0.0,0.0,0.0,0.0
5.42,0.0,0.0,0.0,7.7135304746894215,0.0,0.0,0.5176760303287593,0.0,0.0,0.0,0.0,0.0
5.425,0.0,0.0,0.0,7.624085274529183,0.0,0.0,0.5086483832534141,0.0,0.0,0.0,0.0,0.0
5.43,0.0,0.0,0.0,6.667786574089398,0.0,0.0,0.5116231870741347,0.0,0.0,0.0,0.0,0.0
5.4350000000000005,0.0,0.0,0.0,7.341033139384828,0.0,0.0,0.48723798079462044,0.0,0.0,0.0,0.0,0.0
5.44,0.0,0.0,0.0,7.158186333435166,0.0,0.0,0.5034875838227872,0.0,0.0,0.0,0.0,0.0
5.445,0.0,0.0,0.0,7.288602399157938,0.0,0.0,0.4846793670539858,0.0,0.0,0.0,0.0,0.0
5.45,0.0,0.0,0.0,7.674401394609238,0.0,0.0,0.4970398786975325,0.0,0.0,0.0,0.0,0.0
5.455,0.0,0.0,0.0,7.627409699178623,0.0,0.0,0.48201789637081066,0.0,0.0,0.0,0.0,0.0
5.46,0.0,0.0,0.0,6.921289090453418,0.0,0.0,0.48803624509652765,0.0,0.0,0.0,0.0,0.0
5.465,0.0,0.0,0.0,7.438895181113718,0.0,0.0,0.5021512805504086,0.0,0.0,0.0,0.0,0.0
5.47,0.0,0.0,0.0,8.138359200282748,0.0,0.0,0.4813169250687859,0.0,0.0,0.0,0.0,0.0
5.4750000000000005,0.0,0.0,0.0,7.107038503351636,0.0,0.0,0.5049379556819134,0.0,0.0,0.0,0.0,0.0
5.48,0.0,0.0,0.0,7.161817809966108,0.0,0.0,0.4978937092813157,0.0,0.0,0.0,0.0,0.0
5.485,0.0,0.0,0.0,8.016050289108234,0.0,0.0,0.5102478840160836,0.0,0.0,0.0,0.0,0.0
5.49,0.0,0.0,0.0,7.457702461449261,0.0,0.0,0.4988966087033846,0.0,0.0,0.0,0.0,0.0
5.495,0.0,0.0,0.0,7.149308336838476,0.0,0.0,0.4871835380894341,0.0,0.0,0.0,0.0,0.0
5.5,0.0,0.0,0.0,7.86771409889265,0.0,0.0,0.5058915603945137,0.0,0.0,0.0,0.0,0.0
5.505,0.0,0.0,0.0,7.8235477127975175,0.0,0.0,0.5093466508265665,0.0,0.0,0.0,0.0,0.0
5.51,0.0,0.0,0.0,7.271009216318119,0.0,0.0,0.5113410732280147,0.0,0.0,0.0,0.0,0.0
5.515,0.0,0.0,0.0,7.048867049549014,0.0,0.0,0.5094119818785483,0.0,0.0,0.0,0.0,0.0
5.5200000000000005,0.0,0.0,0.0,7.547597979276123,0.0,0.0,0.5075947061081948,0.0,0.0,0.0,0.0,0.0
5.525,0.0,0.0,0.0,7.640124444722683,0.0,0.0,0.5224294833248014,0.0,0.0,0.0,0.0,0.0
5.53,0.0,0.0,0.0,7.672019937764482,0.0,0.0,0.49656049644373906,0.0,0.0,0.0,0.0,0.0
5.535,0.0,0.0,0.0,7.401874513824775,0.0,0.0,0.4968604340050796,0.0,0.0,0.0,0.0,0.0
5.54,0.0,0.0,0.0,7.1725114019151235,0.0,0.0,0.507395304021414,0.0,0.0,0.0,0.0,0.0
5.545,0.0,0.0,0.0,7.205007138011275,0.0,0.0,0.48255046142467645,0.0,0.0,0.0,0.0,0.0
5.55,0.0,0.0,0.0,7.672293401722927,0.0,0.0,0.47520146892573,0.0,0.0,0.0,0.0,0.0
5.555,0.0,0.0,0.0,7.6293767381794515,0.0,0.0,0.4907167911032652,0.0,0.0,0.0,0.0,0.0
5.5600000000000005,0.0,0.0,0.0,7.708151497858568,0.0,0.0,0.5106772682395245,0.0,0.0,0.0,0.0,0.0
5.565,0.0,0.0,0.0,7.93564917676017,0.0,0.0,0.5066531270770804,0.0,0.0,0.0,0.0,0.0
5.57,0.0,0.0,0.0,7.398709608726685,0.0,0.0,0.500202703488963,0.0,0.0,0.0,0.0,0.0
5.575,0.0,0.0,0.0,7.274912615771522,0.0,0.0,0.49823987943636494,0.0,0.0,0.0,0.0,0.0
5.58,0.0,0.0,0.0,7.884569255484009,0.0,0.0,0.5161856425963537,0.0,0.0,0.0,0.0,0.0
5.585,0.0,0.0,0.0,7.961885978152134,0.0,0.0,0.5137869848472209,0.0,0.0,0.0,0.0,0.0
5.59,0.0,0.0,0.0,7.567423417397253,0.0,0.0,0.49998294222909273,0.0,0.0,0.0,0.0,0.0
5.595,0.0,0.0,0.0,7.857601040919644,0.0,0.0,0.5000907756422246,0.0,0.0,0.0,0.0,0.0
5.6000000000000005,0.0,0.0,0.0,7.925383512021336,0.0,0.0,0.5085660173953174,0.0,0.0,0.0,0.0,0.0
5.605,0.0,0.0,0.0,7.1916560776376555,0.0,0.0,0.5092910148991937,0.0,0.0,0.0,0.0,0.0
5.61,0.0,0.0,0.0,7.273980025058685,0.0,0.0,0.5092913057904427,0.0,0.0,0.0,0.0,0.0
5.615,0.0,0.0,0.0,7.610881804270874,0.0,0.0,0.5009156794526172,0.0,0.0,0.0,0.0,0.0
5.62,0.0,0.0,0.0,7.715191138085408,0.0,0.0,0.4989768103242944,0.0,0.0,0.0,0.0,0.0
5.625,0.0,0.0,0.0,7.42793463601442,0.0,0.0,0.5076775232845012,0.0,0.0,0.0,0.0,0.0
5.63,0.0,0.0,0.0,8.325438990085717,0.0,0.0,0.4873212005357971,0.0,0.0,0.0,0.0,0.0
5.635,0.0,0.0,0.0,7.37559127385308,0.0,0.0,0.4896331577120113,0.0,0.0,0.0,0.0,0.0
5.64,0.0,0.0,0.0,8.240691377544763,0.0,0.0,0.5042529733786252,0.0,0.0,0.0,0.0,0.0
5.6450000000000005,0.0,0.0,0.0,8.14162965785424,0.0,0.0,0.5069024393411028,0.0,0.0,0.0,0.0,0.0
5.65,0.0,0.0,0.0,7.713201824997788,0.0,0.0,0.49472133354746206,0.0,0.0,0.0,0.0,0.0
5.655,0.0,0.0,0.0,8.178538824961628,0.0,0.0,0.5014936994704561,0.0,0.0,0.0,0.0,0.0
5.66,0.0,0.0,0.0,7.603850428181019,0.0,0.0,0.5074852698865687,0.0,0.0,0.0,0.0,0.0
5.665,0.0,0.0,0.0,7.964656233336322,0.0,0.0,0.49471341795947926,0.0,0.0,0.0,0.0,0.0
5.67,0.0,0.0,0.0,8.167778819304914,0.0,0.0,0.5076951138230557,0.0,0.0,0.0,0.0,0.0
5.675,0.0,0.0,0.0,7.9462276145845205,0.0,0.0,0.5042451154630667,0.0,0.0,0.0,0.0,0.0
5.68,0.0,0.0,0.0,8.205021942170292,0.0,0.0,0.48771415483599523,0.0,0.0,0.0,0.0,0.0
5.6850000000000005,0.0,0.0,0.0,8.209364536360955,0.0,0.0,0.5182374571207135,0.0,0.0,0.0,0.0,0.0
5.69,0.0,0.0,0.0,7.704117364920583,0.0,0.0,0.5136191236740106,0.0,0.0,0.0,0.0,0.0
5.695,0.0,0.0,0.0,8.148788957310561,0.0,0.0,0.49183221633772517,0.0,0.0,0.0,0.0,0.0
5.7,0.0,0.0,0.0,7.6503123613832855,0.0,0.0,0.5074369662260735,0.0,0.0,0.0,0.0,0.0
5.705,0.0,0.0,0.0,8.410690239339388,0.0,0.0,0.49895784444614455,0.0,0.0,0.0,0.0,0.0
5.71,0.0,0.0,0.0,8.22507904331103,0.0,0.0,0.521269884826395,0.0,0.0,0.0,0.0,0.0
5.715,0.0,0.0,0.0,8.656986678181111,0.0,0.0,0.5045235911521895,0.0,0.0,0.0,0.0,0.0
5.72,0.0,0.0,0.0,8.17673192331593,0.0,0.0,0.49410691260998985,0.0,0.0,0.0,0.0,0.0
5.7250000000000005,0.0,0.0,0.0,8.278208686085673,0.0,0.0,0.5149783576960112,0.0,0.0,0.0,0.0,0.0
5.73,0.0,0.0,0.0,7.769590078155579,0.0,0.0,0.5030156104061339,0.0,0.0,0.0,0.0,0.0
5.735,0.0,0.0,0.0,8.8415023120319,0.0,0.0,0.48885258862567077,0.0,0.0,0.0,0.0,0.0
5.74,0.0,0.0,0.0,8.60947274638641,0.0,0.0,0.4920428306648203,0.0,0.0,0.0,0.0,0.0
5.745,0.0,0.0,0.0,8.714825050994289,0.0,0.0,0.4905257056834683,0.0,0.0,0.0,0.0,0.0
5.75,0.0,0.0,0.0,7.938064811924161,0.0,0.0,0.47808200121571964,0.0,0.0,0.0,0.0,0.0
5.755,0.0,0.0,0.0,8.295883245482768,0.0,0.0,0.517751012122564,0.0,0.0,0.0,0.0,0.0
5.76,0.0,0.0,0.0,8.49576190826581,0.0,0.0,0.49547099596230737,0.0,0.0,0.0,0.0,0.0
5.765,0.0,0.0,0.0,7.868696706320307,0.0,0.0,0.49951604070610156,0.0,0.0,0.0,0.0,0.0
5.7700000000000005,0.0,0.0,0.0,8.606783820040455,0.0,0.0,0.49566601267954247,0.0,0.0,0.0,0.0,0.0
5.775,0.0,0.0,0.0,8.784602341214201,0.0,0.0,0.5084422636359003,0.0,0.0,0.0,0.0,0.0
5.78,0.0,0.0,0.0,8.358975246313875,0.0,0.0,0.5029319294925301,0.0,0.0,0.0,0.0,0.0
5.785,0.0,0.0,0.0,8.463383876061364,0.0,0.0,0.500634503493018,0.0,0.0,0.0,0.0,0.0
5.79,0.0,0.0,0.0,9.031665571961764,0.0,0.0,0.506312971934779,0.0,0.0,0.0,0.0,0.0
5.795,0.0,0.0,0.0,8.979500892329964,0.0,0.0,0.5140176236983599,0.0,0.0,0.0,0.0,0.0
5.8,0.0,0.0,0.0,8.613865657534026,0.0,0.0,0.48686737518628,0.0,0.0,0.0,0.0,0.0
5.805,0.0,0.0,0.0,8.841961122531863,0.0,0.0,0.5079415926220969,0.0,0.0,0.0,0.0,0.0
5.8100000000000005,0.0,0.0,0.0,8.090040363558604,0.0,0.0,0.4799607602707776,0.0,0.0,0.0,0.0,0.0
5.815,0.0,0.0,0.0,9.013341837109897,0.0,0.0,0.48928326635680097,0.0,0.0,0.0,0.0,0.0
5.82,0.0,0.0,0.0,8.470304146776686,0.0,0.0,0.5079616831723516,0.0,0.0,0.0,0.0,0.0
5.825,0.0,0.0,0.0,8.144711941716285,0.0,0.0,0.4980762471465786,0.0,0.0,0.0,0.0,0.0
5.83,0.0,0.0,0.0,8.508611005201264,0.0,0.0,0.4910081835448652,0.0,0.0,0.0,0.0,0.0
5.835,0.0,0.0,0.0,8.084272879215993,0.0,0.0,0.4974775201415329,0.0,0.0,0.0,0.0,0.0
5.84,0.0,0.0,0.0,8.988367964988665,0.0,0.0,0.4845444262601609,0.0,0.0,0.0,0.0,0.0
5.845,0.0,0.0,0.0,8.55712904134488,0.0,0.0,0.4931039084564482,0.0,0.0,0.0,0.0,0.0
5.8500000000000005,0.0,0.0,0.0,9.076037967261096,0.0,0.0,0.49884964684660327,0.0,0.0,0.0,0.0,0.0
5.855,0.0,0.0,0.0,8.80100624433823,0.0,0.0,0.4818812207236908,0.0,0.0,0.0,0.0,0.0
5.86,0.0,0.0,0.0,9.02257320781717,0.0,0.0,0.5007888573162,0.0,0.0,0.0,0.0,0.0
5.865,0.0,0.0,0.0,8.455352784651359,0.0,0.0,0.5136582668409335,0.0,0.0,0.0,0.0,0.0
5.87,0.0,0.0,0.0,8.657240771936852,0.0,0.0,0.5150574556373347,0.0,0.0,0.0,0.0,0.0
5.875,0.0,0.0,0.0,8.402720408217984,0.0,0.0,0.49522316741071587,0.0,0.0,0.0,0.0,0.0
5.88,0.0,0.0,0.0,8.007590732308254,0.0,0.0,0.48491305507801274,0.0,0.0,0.0,0.0,0.0
5.885,0.0,0.0,0.0,8.410069824102841,0.0,0.0,0.4994861099153559,0.0,0.0,0.0,0.0,0.0
5.89,0.0,0.0,0.0,8.546440016910656,0.0,0.0,0.502031093979298,0.0,0.0,0.0,0.0,0.0
5.8950000000000005,0.0,0.0,0.0,8.58025582380425,0.0,0.0,0.5076445025082468,0.0,0.0,0.0,0.0,0.0
5.9,0.0,0.0,0.0,8.55720453038386,0.0,0.0,0.5028621595432363,0.0,0.0,0.0,0.0,0.0
5.905,0.0,0.0,0.0,8.687037036420486,0.0,0.0,0.5088380854880408,0.0,0.0,0.0,0.0,0.0
5.91,0.0,0.0,0.0,8.998221429075981,0.0,0.0,0.5044768109948485,0.0,0.0,0.0,0.0,0.0
5.915,0.0,0.0,0.0,8.629402528124983,0.0,0.0,0.5202637634140632,0.0,0.0,0.0,0.0,0.0
5.92,0.0,0.0,0.0,8.857730475907665,0.0,0.0,0.5074206659527847,0.0,0.0,0.0,0.0,0.0
5.925,0.0,0.0,0.0,8.458200707124181,0.0,0.0,0.49757735942317494,0.0,0.0,0.0,0.0,0.0
5.93,0.0,0.0,0.0,8.410321650788905,0.0,0.0,0.5137809946592419,0.0,0.0,0.0,0.0,0.0
5.9350000000000005,0.0,0.0,0.0,7.9999519429370665,0.0,0.0,0.4949755155496156,0.0,0.0,0.0,0.0,0.0
5.94,0.0,0.0,0.0,8.430154620513367,0.0,0.0,0.4734169421120339,0.0,0.0,0.0,0.0,0.0
5.945,0.0,0.0,0.0,9.269842306496864,0.0,0.0,0.5086087165845661,0.0,0.0,0.0,0.0,0.0
5.95,0.0,0.0,0.0,8.866346363292626,0.0,0.0,0.4933310288735537,0.0,0.0,0.0,0.0,0.0
5.955,0.0,0.0,0.0,9.809166775286785,0.0,0.0,0.5096957179001689,0.0,0.0,0.0,0.0,0.0
5.96,0.0,0.0,0.0,9.359807900595216,0.0,0.0,0.49737646144544123,0.0,0.0,0.0,0.0,0.0
5.965,0.0,0.0,0.0,8.426487772609141,0.0,0.0,0.5093466907825521,0.0,0.0,0.0,0.0,0.0
5.97,0.0,0.0,0.0,9.073565038051843,0.0,0.0,0.4803851599601331,0.0,0.0,0.0,0.0,0.0
5.9750000000000005,0.0,0.0,0.0,9.369666087399427,0.0,0.0,0.501654869557319,0.0,0.0,0.0,0.0,0.0
5.98,0.0,0.0,0.0,8.697374055538383,0.0,0.0,0.5097998611069231,0.0,0.0,0.0,0.0,0.0
5.985,0.0,0.0,0.0,9.322325593249364,0.0,0.0,0.49364757984894597,0.0,0.0,0.0,0.0,0.0
5.99,0.0,0.0,0.0,8.90447154801075,0.0,0.0,0.4937400619301944,0.0,0.0,0.0,0.0,0.0
5.995,0.0,0.0,0.0,8.747844564137628,0.0,0.0,0.5052146166497256,0.0,0.0,0.0,0.0,0.0
6.0,0.0,0.0,0.0,9.635043950492268,0.0,0.0,0.511438955283452,0.0,0.0,0.0,0.0,0.0
6.005,0.0,0.0,0.0,8.736034608235576,0.0,0.0,0.49796395572521884,0.0,0.0,0.0,0.0,0.0
6.01,0.0,0.0,0.0,9.405546183813222,0.0,0.0,0.4867993757465003,0.0,0.0,0.0,0.0,0.0
6.015000000000001,0.0,0.0,0.0,9.01256688079578,0.0,0.0,0.49115460978816533,0.0,0.0,0.0,0.0,0.0
6.0200000000000005,0.0,0.0,0.0,8.804904417139161,0.0,0.0,0.5058517086610385,0.0,0.0,0.0,0.0,0.0
6.025,0.0,0.0,0.0,8.805791663542474,0.0,0.0,0.5029764767745429,0.0,0.0,0.0,0.0,0.0
6.03,0.0,0.0,0.0,8.696872522334225,0.0,0.0,0.4988738477852526,0.0,0.0,0.0,0.0,0.0
6.035,0.0,0.0,0.0,9.321457523689974,0.0,0.0,0.49764140255911427,0.0,0.0,0.0,0.0,0.0
6.04,0.0,0.0,0.0,8.5320925118736,0.0,0.0,0.5077325099837932,0.0,0.0,0.0,0.0,0.0
6.045,0.0,0.0,0.0,9.148546891766845,0.0,0.0,0.4871189618418784,0.0,0.0,0.0,0.0,0.0
6.05,0.0,0.0,0.0,9.060733182051177,0.0,0.0,0.4874469250503322,0.0,0.0,0.0,0.0,0.0
6.055,0.0,0.0,0.0,9.367255052094112,0.0,0.0,0.5039229710602057,0.0,0.0,0.0,0.0,0.0
6.0600000000000005,0.0,0.0,0.0,9.25167300186181,0.0,0.0,0.5187689431637355,0.0,0.0,0.0,0.0,0.0
6.065,0.0,0.0,0.0,8.739883885561769,0.0,0.0,0.492937807658046,0.0,0.0,0.0,0.0,0.0
6.07,0.0,0.0,0.0,9.120590028033845,0.0,0.0,0.48952021984877536,0.0,0.0,0.0,0.0,0.0
6.075,0.0,0.0,0.0,9.123491506430739,0.0,0.0,0.5095102068307164,0.0,0.0,0.0,0.0,0.0
6.08,0.0,0.0,0.0,8.610436636229933,0.0,0.0,0.5012624218959745,0.0,0.0,0.0,0.0,0.0
6.085,0.0,0.0,0.0,8.605152046349607,0.0,0.0,0.4886372835743861,0.0,0.0,0.0,0.0,0.0
6.09,0.0,0.0,0.0,9.306033008471765,0.0,0.0,0.4967517303244855,0.0,0.0,0.0,0.0,0.0
6.095,0.0,0.0,0.0,9.532404070753772,0.0,0.0,0.5069303084221727,0.0,0.0,0.0,0.0,0.0
6.1000000000000005,0.0,0.0,0.0,9.090551123576088,0.0,0.0,0.4942401651934554,0.0,0.0,0.0,0.0,0.0
6.105,0.0,0.0,0.0,9.369977396666286,0.0,0.0,0.4854501355015476,0.0,0.0,0.0,0.0,0.0
6.11,0.0,0.0,0.0,9.492892220597573,0.0,0.0,0.5016465421500097,0.0,0.0,0.0,0.0,0.0
6.115,0.0,0.0,0.0,9.228362023220024,0.0,0.0,0.4946801116329936,0.0,0.0,0.0,0.0,0.0
6.12,0.0,0.0,0.0,9.390046338394436,0.0,0.0,0.5102512494580588,0.0,0.0,0.0,0.0,0.0
6.125,0.0,0.0,0.0,9.192614209589737,0.0,0.0,0.5102342370017519,0.0,0.0,0.0,0.0,0.0
6.13,0.0,0.0,0.0,9.151618204663132,0.0,0.0,0.4816152256089323,0.0,0.0,0.0,0.0,0.0
6.135,0.0,0.0,0.0,9.12023864502008,0.0,0.0,0.4968043099381427,0.0,0.0,0.0,0.0,0.0
6.140000000000001,0.0,0.0,0.0,9.230142071179419,0.0,0.0,0.5029347246171934,0.0,0.0,0.0,0.0,0.0
6.1450000000000005,0.0,0.0,0.0,9.521796411096835,0.0,0.0,0.5025266594579374,0.0,0.0,0.0,0.0,0.0
6.15,0.0,0.0,0.0,8.965260180486265,0.0,0.0,0.5126543806192089,0.0,0.0,0.0,0.0,0.0
6.155,0.0,0.0,0.0,9.735870632362769,0.0,0.0,0.500032959388589,0.0,0.0,0.0,0.0,0.0
6.16,0.0,0.0,0.0,9.212560999134062,0.0,0.0,0.4975132140032593,0.0,0.0,0.0,0.0,0.0
6.165,0.0,0.0,0.0,9.933395799412908,0.0,0.0,0.5003470970657558,0.0,0.0,0.0,0.0,0.0
6.17,0.0,0.0,0.0,9.624435630812254,0.0,0.0,0.49754340983392237,0.0,0.0,0.0,0.0,0.0
6.175,0.0,0.0,0.0,9.378354062869667,0.0,0.0,0.5151279809719669,0.0,0.0,0.0,0.0,0.0
6.18,0.0,0.0,0.0,9.119445180027494,0.0,0.0,0.4969956568364154,0.0,0.0,0.0,0.0,0.0
6.1850000000000005,0.0,0.0,0.0,9.993670687687617,0.0,0.0,0.48948318314505185,0.0,0.0,0.0,0.0,0.0
6.19,0.0,0.0,0.0,9.934867690235764,0.0,0.0,0.5106961973732878,0.0,0.0,0.0,0.0,0.0
6.195,0.0,0.0,0.0,9.957479526424573,0.0,0.0,0.49422172993316504,0.0,0.0,0.0,0.0,0.0
6.2,0.0,0.0,0.0,9.287339702490963,0.0,0.0,0.5026275754062384,0.0,0.0,0.0,0.0,0.0
6.205,0.0,0.0,0.0,9.206672339392664,0.0,0.0,0.5126183805807375,0.0,0.0,0.0,0.0,0.0
6.21,0.0,0.0,0.0,9.810805802408245,0.0,0.0,0.5061346723605316,0.0,0.0,0.0,0.0,0.0
6.215,0.0,0.0,0.0,9.589855017635223,0.0,0.0,0.49833450579417593,0.0,0.0,0.0,0.0,0.0
6.22,0.0,0.0,0.0,9.730252807855447,0.0,0.0,0.5126195850216786,0.0,0.0,0.0,0.0,0.0
6.2250000000000005,0.0,0.0,0.0,9.860491965140676,0.0,0.0,0.4986279318359332,0.0,0.0,0.0,0.0,0.0
6.23,0.0,0.0,0.0,10.05522428717973,0.0,0.0,0.49741623155406306,0.0,0.0,0.0,0.0,0.0
6.235,0.0,0.0,0.0,9.904279223233438,0.0,0.0,0.5057707761177722,0.0,0.0,0.0,0.0,0.0
6.24,0.0,0.0,0.0,10.039476995118811,0.0,0.0,0.5057445719880935,0.0,0.0,0.0,0.0,0.0
6.245,0.0,0.0,0.0,10.041774816961107,0.0,0.0,0.5000446221022763,0.0,0.0,0.0,0.0,0.0
6.25,0.0,0.0,0.0,9.95849019454342,0.0,0.0,0.4997410661293882,0.0,0.0,0.0,0.0,0.0
6.255,0.0,0.0,0.0,9.836989013268886,0.0,0.0,0.4982547491361611,0.0,0.0,0.0,0.0,0.0
6.26,0.0,0.0,0.0,10.23691604406732,0.0,0.0,0.49342068495539554,0.0,0.0,0.0,0.0,0.0
6.265000000000001,0.0,0.0,0.0,10.331833336923236,0.0,0.0,0.4987053839626045,0.0,0.0,0.0,0.0,0.0
6.2700000000000005,0.0,0.0,0.0,10.33043921742079,0.0,0.0,0.504898904419745,0.0,0.0,0.0,0.0,0.0
6.275,0.0,0.0,0.0,9.725591004788003,0.0,0.0,0.4844891485295854,0.0,0.0,0.0,0.0,0.0
6.28,0.0,0.0,0.0,9.763433519923257,0.0,0.0,0.513764582702744,0.0,0.0,0.0,0.0,0.0
6.285,0.0,0.0,0.0,10.199783068119855,0.0,0.0,0.4997533321946566,0.0,0.0,0.0,0.0,0.0
6.29,0.0,0.0,0.0,10.063693898827951,0.0,0.0,0.49967790723627425,0.0,0.0,0.0,0.0,0.0
6.295,0.0,0.0,0.0,9.737929283643874,0.0,0.0,0.49648324073845057,0.0,0.0,0.0,0.0,0.0
6.3,0.0,0.0,0.0,9.78015236065917,0.0,0.0,0.5030564478548685,0.0,0.0,0.0,0.0,0.0
6.305,0.0,0.0,0.0,9.92959910725142,0.0,0.0,0.5117169705666053,0.0,0.0,0.0,0.0,0.0
6.3100000000000005,0.0,0.0,0.0,9.95972878616215,0.0,0.0,0.5122825161062193,0.0,0.0,0.0,0.0,0.0
6.315,0.0,0.0,0.0,9.912972789180635,0.0,0.0,0.5104657511750724,0.0,0.0,0.0,0.0,0.0
6.32,0.0,0.0,0.0,9.891838040705577,0.0,0.0,0.5076808036969372,0.0,0.0,0.0,0.0,0.0
6.325,0.0,0.0,0.0,10.06185457134217,0.0,0.0,0.5071483735874011,0.0,0.0,0.0,0.0,0.0
6.33,0.0,0.0,0.0,10.222053597718935,0.0,0.0,0.49407825616262696,0.0,0.0,0.0,0.0,0.0
6.335,0.0,0.0,0.0,9.793633245284683,0.0,0.0,0.5189317938022677,0.0,0.0,0.0,0.0,0.0
6.34,0.0,0.0,0.0,10.438978300760562,0.0,0.0,0.5101503164505092,0.0,0.0,0.0,0.0,0.0
6.345,0.0,0.0,0.0,10.148369313955332,0.0,0.0,0.4963931396842691,0.0,0.0,0.0,0.0,0.0
6.3500000000000005,0.0,0.0,0.0,10.108635829374231,0.0,0.0,0.483028490824588,0.0,0.0,0.0,0.0,0.0
6.355,0.0,0.0,0.0,10.316837134771065,0.0,0.0,0.4877808601643511,0.0,0.0,0.0,0.0,0.0
6.36,0.0,0.0,0.0,10.368041053911616,0.0,0.0,0.49410478283931586,0.0,0.0,0.0,0.0,0.0
6.365,0.0,0.0,0.0,10.288375354059253,0.0,0.0,0.4770506815333007,0.0,0.0,0.0,0.0,0.0
6.37,0.0,0.0,0.0,10.287803457433766,0.0,0.0,0.5213670798582556,0.0,0.0,0.0,0.0,0.0
6.375,0.0,0.0,0.0,10.09535746836614,0.0,0.0,0.4989143084139143,0.0,0.0,0.0,0.0,0.0
6.38,0.0,0.0,0.0,10.50902300045849,0.0,0.0,0.49723545089218,0.0,0.0,0.0,0.0,0.0
6.385,0.0,0.0,0.0,10.21329950091047,0.0,0.0,0.5064015650551166,0.0,0.0,0.0,0.0,0.0
6.390000000000001,0.0,0.0,0.0,10.219850997164432,0.0,0.0,0.5101054576874993,0.0,0.0,0.0,0.0,0.0
6.3950000000000005,0.0,0.0,0.0,10.437423066603703,0.0,0.0,0.5134187992760316,0.0,0.0,0.0,0.0,0.0
6.4,0.0,0.0,0.0,10.332683482143253,0.0,0.0,0.49708535498006795,0.0,0.0,0.0,0.0,0.0
6.405,0.0,0.0,0.0,9.31926363001814,0.0,0.0,0.5015543788614354,0.0,0.0,0.0,0.0,0.0
6.41,0.0,0.0,0.0,10.186464776042834,0.0,0.0,0.5154394759042993,0.0,0.0,0.0,0.0,0.0
6.415,0.0,0.0,0.0,10.45188767834763,0.0,0.0,0.4984239099919495,0.0,0.0,0.0,0.0,0.0
6.42,0.0,0.0,0.0,10.71422873814367,0.0,0.0,0.5276569227057949,0.0,0.0,0.0,0.0,0.0
6.425,0.0,0.0,0.0,10.640310816318447,0.0,0.0,0.4992404960043873,0.0,0.0,0.0,0.0,0.0
6.43,0.0,0.0,0.0,10.23324879067695,0.0,0.0,0.48137884727097763,0.0,0.0,0.0,0.0,0.0
6.4350000000000005,0.0,0.0,0.0,10.899673154833899,0.0,0.0,0.49898636751459574,0.0,0.0,0.0,0.0,0.0
6.44,0.0,0.0,0.0,10.67668831896838,0.0,0.0,0.5031793136032838,0.0,0.0,0.0,0.0,0.0
6.445,0.0,0.0,0.0,10.567077222593257,0.0,0.0,0.5042231285463353,0.0,0.0,0.0,0.0,0.0
6.45,0.0,0.0,0.0,9.872369981600897,0.0,0.0,0.4917236188129311,0.0,0.0,0.0,0.0,0.0
6.455,0.0,0.0,0.0,10.45243101608037,0.0,0.0,0.5007321137599782,0.0,0.0,0.0,0.0,0.0
6.46,0.0,0.0,0.0,10.022702340731476,0.0,0.0,0.4935701841305481,0.0,0.0,0.0,0.0,0.0
6.465,0.0,0.0,0.0,10.479243173498704,0.0,0.0,0.49502630719169444,0.0,0.0,0.0,0.0,0.0
6.47,0.0,0.0,0.0,10.081785497544697,0.0,0.0,0.4942550050961518,0.0,0.0,0.0,0.0,0.0
6.4750000000000005,0.0,0.0,0.0,10.449128941281966,0.0,0.0,0.5090371023210014,0.0,0.0,0.0,0.0,0.0
6.48,0.0,0.0,0.0,10.580384865582321,0.0,0.0,0.4853659320100605,0.0,0.0,0.0,0.0,0.0
6.485,0.0,0.0,0.0,10.561586480655375,0.0,0.0,0.5128136446949235,0.0,0.0,0.0,0.0,0.0
6.49,0.0,0.0,0.0,10.427522034904525,0.0,0.0,0.5105065154965475,0.0,0.0,0.0,0.0,0.0
6.495,0.0,0.0,0.0,10.69809867925318,0.0,0.0,0.4883474192193687,0.0,0.0,0.0,0.0,0.0
6.5,0.0,0.0,0.0,11.262760349701749,0.0,0.0,0.4856231115533348,0.0,0.0,0.0,0.0,0.0
6.505,0.0,0.0,0.0,10.469201458874958,0.0,0.0,0.4760628934890094,0.0,0.0,0.0,0.0,0.0
6.51,0.0,0.0,0.0,10.327542118332603,0.0,0.0,0.5140958307918996,0.0,0.0,0.0,0.0,0.0
6.515000000000001,0.0,0.0,0.0,10.805288050409368,0.0,0.0,0.49313471217457416,0.0,0.0,0.0,0.0,0.0
6.5200000000000005,0.0,0.0,0.0,10.615521237816143,0.0,0.0,0.5148152745636645,0.0,0.0,0.0,0.0,0.0
6.525,0.0,0.0,0.0,10.529513298611581,0.0,0.0,0.5173076621845256,0.0,0.0,0.0,0.0,0.0
6.53,0.0,0.0,0.0,11.025343579152498,0.0,0.0,0.49937212744929516,0.0,0.0,0.0,0.0,0.0
6.535,0.0,0.0,0.0,10.22412407386451,0.0,0.0,0.5095973166693959,0.0,0.0,0.0,0.0,0.0
6.54,0.0,0.0,0.0,10.461065470522893,0.0,0.0,0.49970075545738335,0.0,0.0,0.0,0.0,0.0
6.545,0.0,0.0,0.0,10.7990819799342,0.0,0.0,0.49245484042640986,0.0,0.0,0.0,0.0,0.0
6.55,0.0,0.0,0.0,10.352598174845122,0.0,0.0,0.49107297178526055,0.0,0.0,0.0,0.0,0.0
6.555,0.0,0.0,0.0,10.743981594942188,0.0,0.0,0.5151325869302236,0.0,0.0,0.0,0.0,0.0
6.5600000000000005,0.0,0.0,0.0,10.930221855975853,0.0,0.0,0.4870256968868792,0.0,0.0,0.0,0.0,0.0
6.565,0.0,0.0,0.0,10.652985729913167,0.0,0.0,0.5049091917936385,0.0,0.0,0.0,0.0,0.0
6.57,0.0,0.0,0.0,10.975434227924618,0.0,0.0,0.49234045037201196,0.0,0.0,0.0,0.0,0.0
6.575,0.0,0.0,0.0,10.974115165608305,0.0,0.0,0.488894601598336,0.0,0.0,0.0,0.0,0.0
6.58,0.0,0.0,0.0,10.899629526614525,0.0,0.0,0.4986056745531562,0.0,0.0,0.0,0.0,0.0
6.585,0.0,0.0,0.0,11.151327415693398,0.0,0.0,0.4947395312645127,0.0,0.0,0.0,0.0,0.0
6.59,0.0,0.0,0.0,10.553759041640795,0.0,0.0,0.4961773527322053,0.0,0.0,0.0,0.0,0.0
6.595,0.0,0.0,0.0,10.550928312353083,0.0,0.0,0.5000949173561209,0.0,0.0,0.0,0.0,0.0
6.6000000000000005,0.0,0.0,0.0,10.857301424965373,0.0,0.0,0.4959111048882651,0.0,0.0,0.0,0.0,0.0
6.605,0.0,0.0,0.0,11.112417931272674,0.0,0.0,0.5157510444186771,0.0,0.0,0.0,0.0,0.0
6.61,0.0,0.0,0.0,10.838299853783488,0.0,0.0,0.4997462767903974,0.0,0.0,0.0,0.0,0.0
6.615,0.0,0.0,0.0,11.083157327928166,0.0,0.0,0.5149760354113831,0.0,0.0,0.0,0.0,0.0
6.62,0.0,0.0,0.0,10.856545251365052,0.0,0.0,0.48914257466741573,0.0,0.0,0.0,0.0,0.0
6.625,0.0,0.0,0.0,10.626477639756919,0.0,0.0,0.5007911979559282,0.0,0.0,0.0,0.0,0.0
6.63,0.0,0.0,0.0,10.75638513922668,0.0,0.0,0.4964688627162677,0.0,0.0,0.0,0.0,0.0
6.635,0.0,0.0,0.0,11.181359619868967,0.0,0.0,0.4986618839447895,0.0,0.0,0.0,0.0,0.0
6.640000000000001,0.0,0.0,0.0,10.907530784157869,0.0,0.0,0.5066246259704505,0.0,0.0,0.0,0.0,0.0
6.6450000000000005,0.0,0.0,0.0,10.89472712796442,0.0,0.0,0.4904033340357608,0.0,0.0,0.0,0.0,0.0
6.65,0.0,0.0,0.0,10.913914366158934,0.0,0.0,0.5131548289016481,0.0,0.0,0.0,0.0,0.0
6.655,0.0,0.0,0.0,10.89590421064402,0.0,0.0,0.49545203964749873,0.0,0.0,0.0,0.0,0.0
6.66,0.0,0.0,0.0,11.091468887495164,0.0,0.0,0.5090563330047154,0.0,0.0,0.0,0.0,0.0
6.665,0.0,0.0,0.0,11.32434219184141,0.0,0.0,0.49751361546341816,0.0,0.0,0.0,0.0,0.0
6.67,0.0,0.0,0.0,11.025484324460027,0.0,0.0,0.5123771700929884,0.0,0.0,0.0,0.0,0.0
6.675,0.0,0.0,0.0,11.376997732419895,0.0,0.0,0.4962888972886975,0.0,0.0,0.0,0.0,0.0
6.68,0.0,0.0,0.0,11.026825661390138,0.0,0.0,0.5029264146499175,0.0,0.0,0.0,0.0,0.0
6.6850000000000005,0.0,0.0,0.0,10.265362356220685,0.0,0.0,0.5221975204177808,0.0,0.0,0.0,0.0,0.0
6.69,0.0,0.0,0.0,11.474165767932664,0.0,0.0,0.5056995192885417,0.0,0.0,0.0,0.0,0.0
6.695,0.0,0.0,0.0,11.245053575632724,0.0,0.0,0.4876863504373861,0.0,0.0,0.0,0.0,0.0
6.7,0.0,0.0,0.0,11.34258206173632,0.0,0.0,0.49430547925776,0.0,0.0,0.0,0.0,0.0
6.705,0.0,0.0,0.0,11.18963656301045,0.0,0.0,0.4986009529720923,0.0,0.0,0.0,0.0,0.0
6.71,0.0,0.0,0.0,11.028613066663835,0.0,0.0,0.5059103427200811,0.0,0.0,0.0,0.0,0.0
6.715,0.0,0.0,0.0,11.220786811421036,0.0,0.0,0.5096397203953444,0.0,0.0,0.0,0.0,0.0
6.72,0.0,0.0,0.0,11.400704034963525,0.0,0.0,0.496024034609595,0.0,0.0,0.0,0.0,0.0
6.7250000000000005,0.0,0.0,0.0,12.125343195636344,0.0,0.0,0.5100088191834499,0.0,0.0,0.0,0.0,0.0
6.73,0.0,0.0,0.0,11.261347150152218,0.0,0.0,0.5040888080934601,0.0,0.0,0.0,0.0,0.0
6.735,0.0,0.0,0.0,11.331328818567988,0.0,0.0,0.4943250819804935,0.0,0.0,0.0,0.0,0.0
6.74,0.0,0.0,0.0,11.212492907016184,0.0,0.0,0.4887430634342212,0.0,0.0,0.0,0.0,0.0
6.745,0.0,0.0,0.0,11.581382981847415,0.0,0.0,0.49399950974290063,0.0,0.0,0.0,0.0,0.0
6.75,0.0,0.0,0.0,11.907243200229763,0.0,0.0,0.5110777674766878,0.0,0.0,0.0,0.0,0.0
6.755,0.0,0.0,0.0,11.94220623599539,0.0,0.0,0.4874508007966965,0.0,0.0,0.0,0.0,0.0
6.76,0.0,0.0,0.0,11.317720870639022,0.0,0.0,0.5026243687088625,0.0,0.0,0.0,0.0,0.0
6.765000000000001,0.0,0.0,0.0,11.55258624341211,0.0,0.0,0.5024159758135313,0.0,0.0,0.0,0.0,0.0
6.7700000000000005,0.0,0.0,0.0,11.51693878854186,0.0,0.0,0.49470574272844026,0.0,0.0,0.0,0.0,0.0
6.775,0.0,0.0,0.0,11.577085573168885,0.0,0.0,0.5022285296667084,0.0,0.0,0.0,0.0,0.0
6.78,0.0,0.0,0.0,11.453456734647373,0.0,0.0,0.4906779485193527,0.0,0.0,0.0,0.0,0.0
6.785,0.0,0.0,0.0,11.781622278372046,0.0,0.0,0.49493620316006426,0.0,0.0,0.0,0.0,0.0
6.79,0.0,0.0,0.0,11.751172597934541,0.0,0.0,0.51582692847011,0.0,0.0,0.0,0.0,0.0
6.795,0.0,0.0,0.0,11.66959762042188,0.0,0.0,0.4933930514012646,0.0,0.0,0.0,0.0,0.0
6.8,0.0,0.0,0.0,11.608888651470716,0.0,0.0,0.4944869811339106,0.0,0.0,0.0,0.0,0.0
6.805,0.0,0.0,0.0,11.373339650758828,0.0,0.0,0.4976789608412295,0.0,0.0,0.0,0.0,0.0
6.8100000000000005,0.0,0.0,0.0,11.31119208356604,0.0,0.0,0.49769943560483754,0.0,0.0,0.0,0.0,0.0
6.815,0.0,0.0,0.0,11.653709717356259,0.0,0.0,0.5043044624535651,0.0,0.0,0.0,0.0,0.0
6.82,0.0,0.0,0.0,11.888055080574187,0.0,0.0,0.5027145533171014,0.0,0.0,0.0,0.0,0.0
6.825,0.0,0.0,0.0,11.60229144538873,0.0,0.0,0.501746010138769,0.0,0.0,0.0,0.0,0.0
6.83,0.0,0.0,0.0,11.832447922001109,0.0,0.0,0.4963869486857684,0.0,0.0,0.0,0.0,0.0
6.835,0.0,0.0,0.0,11.12195803710243,0.0,0.0,0.5074024760210613,0.0,0.0,0.0,0.0,0.0
6.84,0.0,0.0,0.0,11.187200942738722,0.0,0.0,0.5002022138435855,0.0,0.0,0.0,0.0,0.0
6.845,0.0,0.0,0.0,11.630823073525882,0.0,0.0,0.49351173572274315,0.0,0.0,0.0,0.0,0.0
6.8500000000000005,0.0,0.0,0.0,11.536733379302994,0.0,0.0,0.4980022651517348,0.0,0.0,0.0,0.0,0.0
6.855,0.0,0.0,0.0,11.557796796375564,0.0,0.0,0.5046747861846014,0.0,0.0,0.0,0.0,0.0
6.86,0.0,0.0,0.0,11.851721836131027,0.0,0.0,0.49175976658035886,0.0,0.0,0.0,0.0,0.0
6.865,0.0,0.0,0.0,11.82668843835041,0.0,0.0,0.4870383843767997,0.0,0.0,0.0,0.0,0.0
6.87,0.0,0.0,0.0,12.18142633534858,0.0,0.0,0.5033433719440031,0.0,0.0,0.0,0.0,0.0
6.875,0.0,0.0,0.0,11.63018071898882,0.0,0.0,0.517972813867831,0.0,0.0,0.0,0.0,0.0
6.88,0.0,0.0,0.0,11.633506663563757,0.0,0.0,0.48672875254740133,0.0,0.0,0.0,0.0,0.0
6.885,0.0,0.0,0.0,11.27279716225423,0.0,0.0,0.49725400065370035,0.0,0.0,0.0,0.0,0.0
6.890000000000001,0.0,0.0,0.0,12.712327112114078,0.0,0.0,0.4879419777912103,0.0,0.0,0.0,0.0,0.0
6.8950000000000005,0.0,0.0,0.0,12.237363971615828,0.0,0.0,0.4846097257257354,0.0,0.0,0.0,0.0,0.0
6.9,0.0,0.0,0.0,12.265632168440364,0.0,0.0,0.4966156665640927,0.0,0.0,0.0,0.0,0.0
6.905,0.0,0.0,0.0,12.231563504202786,0.0,0.0,0.5068238354755099,0.0,0.0,0.0,0.0,0.0
6.91,0.0,0.0,0.0,11.832349910614749,0.0,0.0,0.4784839817238624,0.0,0.0,0.0,0.0,0.0
6.915,0.0,0.0,0.0,11.714742849168491,0.0,0.0,0.511290158237527,0.0,0.0,0.0,0.0,0.0
6.92,0.0,0.0,0.0,11.595791191866688,0.0,0.0,0.4984932557091823,0.0,0.0,0.0,0.0,0.0
6.925,0.0,0.0,0.0,11.655167983014644,0.0,0.0,0.5057165307604101,0.0,0.0,0.0,0.0,0.0
6.93,0.0,0.0,0.0,11.903032284525885,0.0,0.0,0.49990677299705943,0.0,0.0,0.0,0.0,0.0
6.9350000000000005,0.0,0.0,0.0,11.74626769665854,0.0,0.0,0.49713622780981254,0.0,0.0,0.0,0.0,0.0
6.94,0.0,0.0,0.0,12.217382678173694,0.0,0.0,0.5221816600664004,0.0,0.0,0.0,0.0,0.0
6.945,0.0,0.0,0.0,11.449673034549413,0.0,0.0,0.4862712778398561,0.0,0.0,0.0,0.0,0.0
6.95,0.0,0.0,0.0,11.928593769071796,0.0,0.0,0.5036192548271702,0.0,0.0,0.0,0.0,0.0
6.955,0.0,0.0,0.0,11.925749179586013,0.0,0.0,0.49410030874375094,0.0,0.0,0.0,0.0,0.0
6.96,0.0,0.0,0.0,11.704692739141459,0.0,0.0,0.5015098769602047,0.0,0.0,0.0,0.0,0.0
6.965,0.0,0.0,0.0,12.027348335110126,0.0,0.0,0.49482685629557993,0.0,0.0,0.0,0.0,0.0
6.97,0.0,0.0,0.0,12.159826380881722,0.0,0.0,0.5168392348741957,0.0,0.0,0.0,0.0,0.0
6.9750000000000005,0.0,0.0,0.0,11.53919243644274,0.0,0.0,0.500170449247915,0.0,0.0,0.0,0.0,0.0
6.98,0.0,0.0,0.0,12.300193946984658,0.0,0.0,0.4960438933998163,0.0,0.0,0.0,0.0,0.0
6.985,0.0,0.0,0.0,12.47310087249697,0.0,0.0,0.5049258579303721,0.0,0.0,0.0,0.0,0.0
6.99,0.0,0.0,0.0,12.092159649609043,0.0,0.0,0.4767824300735432,0.0,0.0,0.0,0.0,0.0
6.995,0.0,0.0,0.0,11.692705437723994,0.0,0.0,0.4960922453840573,0.0,0.0,0.0,0.0,0.0
7.0,0.0,0.0,0.0,11.859005965207452,0.0,0.0,0.5046606677193441,0.0,0.0,0.0,0.0,0.0
7.005,0.0,0.0,0.0,11.60702778291384,0.0,0.0,0.505843745349402,0.0,0.0,0.0,0.0,0.0
7.01,0.0,0.0,0.0,12.74819801023857,0.0,0.0,0.49479852437662797,0.0,0.0,0.0,0.0,0.0
7.015000000000001,0.0,0.0,0.0,12.377045444121238,0.0,0.0,0.48052228665151825,0.0,0.0,0.0,0.0,0.0
7.0200000000000005,0.0,0.0,0.0,12.792997062611777,0.0,0.0,0.5113031388317828,0.0,0.0,0.0,0.0,0.0
7.025,0.0,0.0,0.0,11.934864549134506,0.0,0.0,0.5000044699688799,0.0,0.0,0.0,0.0,0.0
7.03,0.0,0.0,0.0,12.185916951242648,0.0,0.0,0.5030632596291384,0.0,0.0,0.0,0.0,0.0
7.035,0.0,0.0,0.0,12.05116176864483,0.0,0.0,0.5117307125016788,0.0,0.0,0.0,0.0,0.0
7.04,0.0,0.0,0.0,12.655789926800997,0.0,0.0,0.5060668179841057,0.0,0.0,0.0,0.0,0.0
